# UTC DATE Wed Feb 21 21:41:43 2024
# AUTHOR  Carmelo Arcidiacono
# NOTEs  Done using IDL and MICADO IRDB info
# wavelength[micron] efficiency[0-1]
# wavelength efficiency
 0.20000    0.00000
 0.21000    0.00000
 0.22000    0.00000
 0.23000    0.00000
 0.24000    0.00000
 0.25000    0.00000
 0.26000    0.00000
 0.27000    0.00000
 0.28000    0.00000
 0.29000    0.00000
 0.30000    0.00000
 0.30200    0.00000
 0.30300    0.00000
 0.30400    0.00000
 0.30600    0.00000
 0.30700    0.00000
 0.30800    0.00000
 0.31000    0.00000
 0.31200    0.00000
 0.31400    0.00000
 0.31600    0.00000
 0.31700    0.00000
 0.31800    0.00000
 0.32000    0.00000
 0.32100    0.00000
 0.32200    0.00000
 0.32400    0.00000
 0.32600    0.00000
 0.32800    0.00000
 0.33000    0.00000
 0.33100    0.00000
 0.33200    0.00000
 0.33400    0.00000
 0.33500    0.00000
 0.33600    0.00000
 0.33800    0.00000
 0.33900    0.00000
 0.34000    0.00000
 0.34200    0.00000
 0.34400    0.00000
 0.34600    0.00000
 0.34800    0.00000
 0.35000    0.00000
 0.35200    0.00000
 0.35400    0.00000
 0.35600    0.00000
 0.35800    0.00000
 0.36000    0.00000
 0.36200    0.00000
 0.36400    0.00000
 0.36600    0.00000
 0.36800    0.00000
 0.37000    0.00000
 0.37200    0.00000
 0.37400    0.00000
 0.37600    0.00000
 0.37800    0.00000
 0.38000    0.00000
 0.38200    0.00000
 0.38400    0.00000
 0.38600    0.00000
 0.38700    0.00000
 0.38800    0.00000
 0.39000    0.00000
 0.39100    0.00000
 0.39200    0.00000
 0.39400    0.00000
 0.39500    0.00000
 0.39600    0.00000
 0.39800    0.00000
 0.40000    0.00000
 0.40100    0.00000
 0.40200    0.00000
 0.40300    0.00000
 0.40400    0.00000
 0.40500    0.00000
 0.40600    0.00000
 0.40700    0.00000
 0.40800    0.00000
 0.40900    0.00000
 0.41000    0.00000
 0.41100    0.00000
 0.41200    0.00000
 0.41300    0.00000
 0.41400    0.00000
 0.41500    0.00000
 0.41600    0.00000
 0.41700    0.00000
 0.41800    0.00000
 0.41900    0.00000
 0.42000    0.00000
 0.42100    0.00000
 0.42200    0.00000
 0.42300    0.00000
 0.42400    0.00000
 0.42500    0.00000
 0.42600    0.00000
 0.42700    0.00000
 0.42800    0.00000
 0.42900    0.00000
 0.43000    0.00000
 0.43100    0.00000
 0.43200    0.00000
 0.43300    0.00000
 0.43400    0.00000
 0.43500    0.00000
 0.43600    0.00000
 0.43700    0.00000
 0.43800    0.00000
 0.43900    0.00000
 0.44000    0.00000
 0.44100    0.00000
 0.44200    0.00000
 0.44300    0.00000
 0.44400    0.00000
 0.44500    0.00000
 0.44600    0.00000
 0.44700    0.00000
 0.44800    0.00000
 0.44900    0.00000
 0.45000    0.00000
 0.45100    0.00000
 0.45200    0.00000
 0.45300    0.00000
 0.45400    0.00000
 0.45500    0.00000
 0.45600    0.00000
 0.45700    0.00000
 0.45800    0.00000
 0.45900    0.00000
 0.46000    0.00000
 0.46100    0.00000
 0.46200    0.00000
 0.46300    0.00000
 0.46400    0.00000
 0.46500    0.00000
 0.46600    0.00000
 0.46700    0.00000
 0.46800    0.00000
 0.46900    0.00000
 0.47000    0.00000
 0.47100    0.00000
 0.47200    0.00000
 0.47300    0.00000
 0.47400    0.00000
 0.47500    0.00000
 0.47600    0.00000
 0.47700    0.00000
 0.47800    0.00000
 0.47900    0.00000
 0.48000    0.00000
 0.48100    0.00000
 0.48200    0.00000
 0.48300    0.00000
 0.48400    0.00000
 0.48500    0.00000
 0.48600    0.00000
 0.48700    0.00000
 0.48800    0.00000
 0.48900    0.00000
 0.49000    0.00000
 0.49100    0.00000
 0.49200    0.00000
 0.49300    0.00000
 0.49400    0.00000
 0.49500    0.00000
 0.49600    0.00000
 0.49700    0.00000
 0.49800    0.00000
 0.49900    0.00000
 0.50000    0.00000
 0.50100    0.00000
 0.50200    0.00000
 0.50300    0.00000
 0.50400    0.00000
 0.50500    0.00000
 0.50600    0.00000
 0.50700    0.00000
 0.50800    0.00000
 0.50900    0.00000
 0.51000    0.00000
 0.51100    0.00000
 0.51200    0.00000
 0.51300    0.00000
 0.51400    0.00000
 0.51500    0.00000
 0.51600    0.00000
 0.51700    0.00000
 0.51800    0.00000
 0.51900    0.00000
 0.52000    0.00000
 0.52100    0.00000
 0.52200    0.00000
 0.52300    0.00000
 0.52400    0.00000
 0.52500    0.00000
 0.52600    0.00000
 0.52700    0.00000
 0.52800    0.00000
 0.52900    0.00000
 0.53000    0.00000
 0.53100    0.00000
 0.53200    0.00000
 0.53300    0.00000
 0.53400    0.00000
 0.53500    0.00000
 0.53600    0.00000
 0.53700    0.00000
 0.53800    0.00000
 0.53900    0.00000
 0.54000    0.00000
 0.54100    0.00000
 0.54200    0.00000
 0.54300    0.00000
 0.54400    0.00000
 0.54500    0.00000
 0.54600    0.00000
 0.54700    0.00000
 0.54800    0.00000
 0.54900    0.00000
 0.55000    0.00000
 0.55100    0.00000
 0.55200    0.00000
 0.55300    0.00000
 0.55400    0.00000
 0.55500    0.00000
 0.55600    0.00000
 0.55700    0.00000
 0.55800    0.00000
 0.55900    0.00000
 0.56000    0.00000
 0.56100    0.00000
 0.56200    0.00000
 0.56300    0.00000
 0.56400    0.00000
 0.56500    0.00000
 0.56600    0.00000
 0.56700    0.00000
 0.56800    0.00000
 0.56900    0.00000
 0.57000    0.00000
 0.57100    0.00000
 0.57200    0.00000
 0.57300    0.00000
 0.57400    0.00000
 0.57500    0.00000
 0.57600    0.00000
 0.57700    0.00000
 0.57800    0.00000
 0.57900    0.00000
 0.58000    0.00000
 0.58100    0.00000
 0.58200    0.00000
 0.58300    0.00000
 0.58400    0.00000
 0.58500    0.00000
 0.58600    0.00000
 0.58700    0.00000
 0.58800    0.00000
 0.58900    0.00000
 0.59000    0.00000
 0.59100    0.00000
 0.59200    0.00000
 0.59300    0.00000
 0.59400    0.00000
 0.59500    0.00000
 0.59600    0.00000
 0.59700    0.00000
 0.59800    0.00000
 0.59900    0.00000
 0.60000    0.00000
 0.60100    0.00000
 0.60200    0.00000
 0.60300    0.00000
 0.60400    0.00000
 0.60500    0.00000
 0.60600    0.00000
 0.60700    0.00000
 0.60800    0.00000
 0.60900    0.00000
 0.61000    0.00000
 0.61100    0.00000
 0.61200    0.00000
 0.61300    0.00000
 0.61400    0.00000
 0.61500    0.00000
 0.61600    0.00000
 0.61700    0.00000
 0.61800    0.00000
 0.61900    0.00000
 0.62000    0.00000
 0.62100    0.00000
 0.62200    0.00000
 0.62300    0.00000
 0.62400    0.00000
 0.62500    0.00000
 0.62600    0.00000
 0.62700    0.00001
 0.62800    0.00001
 0.62900    0.00001
 0.63000    0.00001
 0.63100    0.00001
 0.63200    0.00001
 0.63300    0.00001
 0.63400    0.00001
 0.63500    0.00001
 0.63600    0.00001
 0.63700    0.00001
 0.63800    0.00001
 0.63900    0.00001
 0.64000    0.00001
 0.64100    0.00001
 0.64200    0.00001
 0.64300    0.00001
 0.64400    0.00001
 0.64500    0.00001
 0.64600    0.00002
 0.64700    0.00002
 0.64800    0.00002
 0.64900    0.00002
 0.65000    0.00002
 0.65100    0.00002
 0.65200    0.00002
 0.65300    0.00002
 0.65400    0.00002
 0.65500    0.00002
 0.65600    0.00002
 0.65700    0.00002
 0.65800    0.00002
 0.65900    0.00002
 0.66000    0.00002
 0.66100    0.00002
 0.66200    0.00002
 0.66300    0.00002
 0.66400    0.00002
 0.66500    0.00002
 0.66600    0.00002
 0.66700    0.00002
 0.66800    0.00002
 0.66900    0.00002
 0.67000    0.00002
 0.67100    0.00002
 0.67200    0.00002
 0.67300    0.00002
 0.67400    0.00002
 0.67500    0.00002
 0.67600    0.00002
 0.67700    0.00002
 0.67800    0.00002
 0.67900    0.00002
 0.68000    0.00002
 0.68100    0.00002
 0.68200    0.00002
 0.68300    0.00002
 0.68400    0.00002
 0.68500    0.00002
 0.68600    0.00002
 0.68700    0.00002
 0.68800    0.00002
 0.68900    0.00002
 0.69000    0.00002
 0.69100    0.00002
 0.69200    0.00002
 0.69300    0.00002
 0.69400    0.00002
 0.69500    0.00002
 0.69600    0.00002
 0.69700    0.00002
 0.69800    0.00002
 0.69900    0.00002
 0.70000    0.00002
 0.70100    0.00002
 0.70200    0.00002
 0.70300    0.00002
 0.70400    0.00002
 0.70500    0.00002
 0.70600    0.00002
 0.70700    0.00002
 0.70800    0.00002
 0.70900    0.00002
 0.71000    0.00002
 0.71100    0.00002
 0.71200    0.00002
 0.71300    0.00002
 0.71400    0.00002
 0.71500    0.00002
 0.71600    0.00002
 0.71700    0.00002
 0.71800    0.00002
 0.71900    0.00002
 0.72000    0.00002
 0.72100    0.00003
 0.72200    0.00003
 0.72300    0.00003
 0.72400    0.00003
 0.72500    0.00003
 0.72600    0.00003
 0.72700    0.00003
 0.72800    0.00003
 0.72900    0.00003
 0.73000    0.00003
 0.73100    0.00003
 0.73200    0.00003
 0.73300    0.00003
 0.73400    0.00003
 0.73500    0.00003
 0.73600    0.00003
 0.73700    0.00003
 0.73800    0.00003
 0.73900    0.00003
 0.74000    0.00003
 0.74100    0.00003
 0.74200    0.00003
 0.74300    0.00003
 0.74400    0.00003
 0.74500    0.00003
 0.74600    0.00003
 0.74700    0.00003
 0.74800    0.00003
 0.74900    0.00003
 0.75000    0.00003
 0.75100    0.00003
 0.75200    0.00003
 0.75300    0.00003
 0.75400    0.00003
 0.75500    0.00003
 0.75600    0.00003
 0.75700    0.00003
 0.75800    0.00003
 0.75900    0.00003
 0.76000    0.00003
 0.76100    0.00003
 0.76200    0.00003
 0.76300    0.00003
 0.76400    0.00003
 0.76500    0.00003
 0.76600    0.00003
 0.76700    0.00003
 0.76800    0.00003
 0.76900    0.00003
 0.77000    0.00003
 0.77100    0.00003
 0.77200    0.00003
 0.77300    0.00003
 0.77400    0.00003
 0.77500    0.00003
 0.77600    0.00003
 0.77700    0.00003
 0.77800    0.00003
 0.77900    0.00003
 0.78000    0.00003
 0.78100    0.00003
 0.78200    0.00003
 0.78300    0.00003
 0.78400    0.00003
 0.78500    0.00003
 0.78600    0.00003
 0.78700    0.00003
 0.78800    0.00003
 0.78900    0.00003
 0.79000    0.00003
 0.79100    0.00003
 0.79200    0.00003
 0.79300    0.00003
 0.79400    0.00003
 0.79500    0.00003
 0.79600    0.00003
 0.79700    0.00003
 0.79800    0.00003
 0.79900    0.00003
 0.80000    0.00003
 0.80100    0.01672
 0.80200    0.03356
 0.80300    0.05039
 0.80400    0.06718
 0.80500    0.08379
 0.80600    0.10012
 0.80700    0.11592
 0.80800    0.13110
 0.80900    0.14592
 0.81000    0.16056
 0.81100    0.17566
 0.81200    0.19212
 0.81300    0.21051
 0.81400    0.23021
 0.81500    0.25073
 0.81600    0.27122
 0.81700    0.28708
 0.81800    0.30134
 0.81900    0.31441
 0.82000    0.31050
 0.82100    0.30691
 0.82200    0.30426
 0.82300    0.30311
 0.82400    0.30324
 0.82500    0.30517
 0.82600    0.30781
 0.82700    0.30956
 0.82800    0.31127
 0.82900    0.31303
 0.83000    0.31450
 0.83100    0.31656
 0.83200    0.31838
 0.83300    0.31897
 0.83400    0.31937
 0.83500    0.32070
 0.83600    0.31896
 0.83700    0.31445
 0.83800    0.31079
 0.83900    0.30852
 0.84000    0.30772
 0.84100    0.30979
 0.84200    0.31275
 0.84300    0.31403
 0.84400    0.31540
 0.84500    0.31786
 0.84600    0.32007
 0.84700    0.32328
 0.84800    0.32623
 0.84900    0.32667
 0.85000    0.32689
 0.85100    0.32740
 0.85200    0.32771
 0.85300    0.32848
 0.85400    0.32907
 0.85500    0.32831
 0.85600    0.32745
 0.85700    0.32784
 0.85800    0.32827
 0.85900    0.32859
 0.86000    0.32925
 0.86100    0.33100
 0.86200    0.33325
 0.86300    0.33127
 0.86400    0.32929
 0.86500    0.32759
 0.86600    0.32763
 0.86700    0.33010
 0.86800    0.33397
 0.86900    0.33817
 0.87000    0.34246
 0.87100    0.34733
 0.87200    0.35163
 0.87300    0.35461
 0.87400    0.35498
 0.87500    0.35504
 0.87600    0.35459
 0.87700    0.35433
 0.87800    0.35347
 0.87900    0.35093
 0.88000    0.34824
 0.88100    0.34556
 0.88200    0.34393
 0.88300    0.34462
 0.88400    0.34701
 0.88500    0.34922
 0.88600    0.35212
 0.88700    0.35545
 0.88800    0.35331
 0.88900    0.35166
 0.89000    0.35042
 0.89100    0.34989
 0.89200    0.34993
 0.89300    0.34961
 0.89400    0.34963
 0.89500    0.35080
 0.89600    0.35198
 0.89700    0.35357
 0.89800    0.35499
 0.89900    0.35571
 0.90000    0.35633
 0.90100    0.35651
 0.90200    0.35687
 0.90300    0.35782
 0.90400    0.35923
 0.90500    0.36132
 0.90600    0.36391
 0.90700    0.36763
 0.90800    0.36794
 0.90900    0.36733
 0.91000    0.36731
 0.91100    0.36825
 0.91200    0.36949
 0.91300    0.37070
 0.91400    0.37186
 0.91500    0.37325
 0.91600    0.37447
 0.91700    0.37509
 0.91800    0.37563
 0.91900    0.37602
 0.92000    0.37662
 0.92100    0.37714
 0.92200    0.37815
 0.92300    0.38052
 0.92400    0.38339
 0.92500    0.38685
 0.92600    0.39054
 0.92700    0.39461
 0.92800    0.39860
 0.92900    0.40115
 0.93000    0.40342
 0.93100    0.40595
 0.93200    0.40818
 0.93300    0.41014
 0.93400    0.41183
 0.93500    0.41364
 0.93600    0.41524
 0.93700    0.41562
 0.93800    0.41587
 0.93900    0.41759
 0.94000    0.41934
 0.94100    0.41978
 0.94200    0.42042
 0.94300    0.42179
 0.94400    0.42343
 0.94500    0.42533
 0.94600    0.42749
 0.94700    0.43059
 0.94800    0.43378
 0.94900    0.43572
 0.95000    0.43594
 0.95100    0.43693
 0.95200    0.43800
 0.95300    0.43827
 0.95400    0.43870
 0.95500    0.43932
 0.95600    0.43995
 0.95700    0.44014
 0.95800    0.44046
 0.95900    0.44217
 0.96000    0.44395
 0.96100    0.44569
 0.96200    0.44743
 0.96300    0.44823
 0.96400    0.44898
 0.96500    0.44966
 0.96600    0.45030
 0.96700    0.45189
 0.96800    0.45347
 0.96900    0.45381
 0.97000    0.45419
 0.97100    0.45514
 0.97200    0.45617
 0.97300    0.45809
 0.97400    0.46010
 0.97500    0.46076
 0.97600    0.46158
 0.97700    0.46252
 0.97800    0.46353
 0.97900    0.46490
 0.98000    0.46629
 0.98100    0.46643
 0.98200    0.46652
 0.98300    0.46824
 0.98400    0.46992
 0.98500    0.47065
 0.98600    0.47135
 0.98700    0.47150
 0.98800    0.47163
 0.98900    0.47297
 0.99000    0.47437
 0.99100    0.47448
 0.99200    0.47467
 0.99300    0.47566
 0.99400    0.47674
 0.99500    0.47767
 0.99600    0.47853
 0.99700    0.47821
 0.99800    0.47801
 0.99900    0.47952
 1.00000    0.48113
 1.00100    0.48199
 1.00200    0.48292
 1.00300    0.48466
 1.00400    0.48642
 1.00500    0.48780
 1.00600    0.48915
 1.00700    0.48959
 1.00800    0.48996
 1.00900    0.48976
 1.01000    0.48946
 1.01100    0.49033
 1.01200    0.49111
 1.01300    0.49249
 1.01400    0.49391
 1.01500    0.49343
 1.01600    0.49305
 1.01700    0.49365
 1.01800    0.49436
 1.01900    0.49476
 1.02000    0.49528
 1.02100    0.49642
 1.02200    0.49762
 1.02300    0.49866
 1.02400    0.49970
 1.02500    0.50041
 1.02600    0.50107
 1.02700    0.50153
 1.02800    0.50192
 1.02900    0.50223
 1.03000    0.50247
 1.03100    0.50383
 1.03200    0.50512
 1.03300    0.50512
 1.03400    0.50508
 1.03500    0.50617
 1.03600    0.50727
 1.03700    0.50709
 1.03800    0.50699
 1.03900    0.50764
 1.04000    0.50843
 1.04100    0.50825
 1.04200    0.50823
 1.04300    0.51027
 1.04400    0.51241
 1.04500    0.51342
 1.04600    0.51449
 1.04700    0.51471
 1.04800    0.51457
 1.04900    0.51471
 1.05000    0.51491
 1.05100    0.51576
 1.05200    0.51670
 1.05300    0.51636
 1.05400    0.51610
 1.05500    0.51709
 1.05600    0.51810
 1.05700    0.51832
 1.05800    0.51853
 1.05900    0.51939
 1.06000    0.52020
 1.06100    0.52081
 1.06200    0.52136
 1.06300    0.52191
 1.06400    0.52238
 1.06500    0.52216
 1.06600    0.52187
 1.06700    0.52070
 1.06800    0.51950
 1.06900    0.52034
 1.07000    0.52122
 1.07100    0.52117
 1.07200    0.52124
 1.07300    0.52112
 1.07400    0.52119
 1.07500    0.52112
 1.07600    0.52130
 1.07700    0.52231
 1.07800    0.52352
 1.07900    0.52536
 1.08000    0.52631
 1.08100    0.52659
 1.08200    0.52682
 1.08300    0.52668
 1.08400    0.52647
 1.08500    0.52635
 1.08600    0.52615
 1.08700    0.52599
 1.08800    0.52577
 1.08900    0.52596
 1.09000    0.52615
 1.09100    0.52597
 1.09200    0.52587
 1.09300    0.52670
 1.09400    0.52770
 1.09500    0.52774
 1.09600    0.52801
 1.09700    0.52820
 1.09800    0.52863
 1.09900    0.53014
 1.10000    0.53181
 1.10100    0.53360
 1.10200    0.53544
 1.10300    0.53700
 1.10400    0.53853
 1.10500    0.53952
 1.10600    0.54042
 1.10700    0.54133
 1.10800    0.54088
 1.10900    0.54073
 1.11000    0.54056
 1.11100    0.54002
 1.11200    0.53949
 1.11300    0.53910
 1.11400    0.53876
 1.11500    0.53767
 1.11600    0.53667
 1.11700    0.53568
 1.11800    0.53480
 1.11900    0.53559
 1.12000    0.53651
 1.12100    0.53641
 1.12200    0.53641
 1.12300    0.53657
 1.12400    0.53679
 1.12500    0.53684
 1.12600    0.53690
 1.12700    0.53784
 1.12800    0.53877
 1.12900    0.53869
 1.13000    0.53859
 1.13100    0.53818
 1.13200    0.53773
 1.13300    0.53906
 1.13400    0.54057
 1.13500    0.54087
 1.13600    0.54116
 1.13700    0.54176
 1.13800    0.54235
 1.13900    0.54255
 1.14000    0.54275
 1.14100    0.54314
 1.14200    0.54355
 1.14300    0.54442
 1.14400    0.54532
 1.14500    0.54498
 1.14600    0.54466
 1.14700    0.54493
 1.14800    0.54521
 1.14900    0.54655
 1.15000    0.54789
 1.15100    0.54859
 1.15200    0.54929
 1.15300    0.54889
 1.15400    0.54848
 1.15500    0.54928
 1.15600    0.55004
 1.15700    0.55106
 1.15800    0.55204
 1.15900    0.55220
 1.16000    0.55235
 1.16100    0.55230
 1.16200    0.55225
 1.16300    0.55249
 1.16400    0.55277
 1.16500    0.55294
 1.16600    0.55313
 1.16700    0.55420
 1.16800    0.55529
 1.16900    0.55576
 1.17000    0.55625
 1.17100    0.55629
 1.17200    0.55634
 1.17300    0.55670
 1.17400    0.55705
 1.17500    0.55753
 1.17600    0.55800
 1.17700    0.55868
 1.17800    0.55934
 1.17900    0.55971
 1.18000    0.56007
 1.18100    0.56036
 1.18200    0.56064
 1.18300    0.56127
 1.18400    0.56189
 1.18500    0.56308
 1.18600    0.56429
 1.18700    0.56437
 1.18800    0.56451
 1.18900    0.56501
 1.19000    0.56559
 1.19100    0.56639
 1.19200    0.56729
 1.19300    0.56795
 1.19400    0.56872
 1.19500    0.56946
 1.19600    0.57029
 1.19700    0.57146
 1.19800    0.57270
 1.19900    0.57458
 1.20000    0.57649
 1.20100    0.57859
 1.20200    0.58069
 1.20300    0.58126
 1.20400    0.58178
 1.20500    0.58298
 1.20600    0.58411
 1.20700    0.58591
 1.20800    0.58764
 1.20900    0.58853
 1.21000    0.58940
 1.21100    0.58946
 1.21200    0.58954
 1.21300    0.58866
 1.21400    0.58782
 1.21500    0.58765
 1.21600    0.58753
 1.21700    0.58808
 1.21800    0.58868
 1.21900    0.58934
 1.22000    0.59006
 1.22100    0.58967
 1.22200    0.58932
 1.22300    0.58934
 1.22400    0.58938
 1.22500    0.59069
 1.22600    0.59199
 1.22700    0.59218
 1.22800    0.59235
 1.22900    0.59266
 1.23000    0.59295
 1.23100    0.59348
 1.23200    0.59397
 1.23300    0.59399
 1.23400    0.59396
 1.23500    0.59423
 1.23600    0.59445
 1.23700    0.59446
 1.23800    0.59440
 1.23900    0.59414
 1.24000    0.59383
 1.24100    0.59385
 1.24200    0.59381
 1.24300    0.59447
 1.24400    0.59509
 1.24500    0.59494
 1.24600    0.59475
 1.24700    0.59402
 1.24800    0.59329
 1.24900    0.59297
 1.25000    0.59268
 1.25100    0.59264
 1.25200    0.59268
 1.25300    0.59252
 1.25400    0.59247
 1.25500    0.59170
 1.25600    0.59103
 1.25700    0.59105
 1.25800    0.59120
 1.25900    0.59179
 1.26000    0.59247
 1.26100    0.59325
 1.26200    0.59410
 1.26300    0.59476
 1.26400    0.59546
 1.26500    0.59644
 1.26600    0.59742
 1.26700    0.59853
 1.26800    0.59961
 1.26900    0.59935
 1.27000    0.59887
 1.27100    0.59897
 1.27200    0.59905
 1.27300    0.59789
 1.27400    0.59675
 1.27500    0.59525
 1.27600    0.59380
 1.27700    0.59435
 1.27800    0.59500
 1.27900    0.59540
 1.28000    0.59589
 1.28100    0.59625
 1.28200    0.59671
 1.28300    0.59703
 1.28400    0.59745
 1.28500    0.59775
 1.28600    0.59813
 1.28700    0.59821
 1.28800    0.59833
 1.28900    0.59873
 1.29000    0.59841
 1.29100    0.59859
 1.29200    0.59883
 1.29300    0.59811
 1.29400    0.59749
 1.29500    0.59638
 1.29600    0.59537
 1.29700    0.59638
 1.29800    0.59751
 1.29900    0.59801
 1.30000    0.59861
 1.30100    0.59922
 1.30200    0.59993
 1.30300    0.60022
 1.30400    0.60058
 1.30500    0.60125
 1.30600    0.60195
 1.30700    0.60297
 1.30800    0.60275
 1.30900    0.60238
 1.31000    0.60197
 1.31100    0.60217
 1.31200    0.60235
 1.31300    0.60239
 1.31400    0.60242
 1.31500    0.60211
 1.31600    0.60181
 1.31700    0.60125
 1.31800    0.60075
 1.31900    0.60056
 1.32000    0.60046
 1.32100    0.60034
 1.32200    0.60037
 1.32300    0.60066
 1.32400    0.60106
 1.32500    0.60086
 1.32600    0.60076
 1.32700    0.60106
 1.32800    0.60145
 1.32900    0.60197
 1.33000    0.60255
 1.33100    0.60410
 1.33200    0.60569
 1.33300    0.60805
 1.33400    0.61041
 1.33500    0.61107
 1.33600    0.61170
 1.33700    0.61209
 1.33800    0.61245
 1.33900    0.61382
 1.34000    0.61515
 1.34100    0.61607
 1.34200    0.61631
 1.34300    0.61479
 1.34400    0.61321
 1.34500    0.61332
 1.34600    0.61337
 1.34700    0.61288
 1.34800    0.61233
 1.34900    0.61204
 1.35000    0.61167
 1.35100    0.61006
 1.35200    0.60839
 1.35300    0.60718
 1.35400    0.60588
 1.35500    0.60459
 1.35600    0.60321
 1.35700    0.60137
 1.35800    0.59945
 1.35900    0.59824
 1.36000    0.59691
 1.36100    0.59517
 1.36200    0.59333
 1.36300    0.59192
 1.36400    0.59036
 1.36500    0.58768
 1.36600    0.58487
 1.36700    0.58220
 1.36800    0.57941
 1.36900    0.57715
 1.37000    0.57475
 1.37100    0.57092
 1.37200    0.56699
 1.37300    0.56265
 1.37400    0.55812
 1.37500    0.55461
 1.37600    0.55090
 1.37700    0.54652
 1.37800    0.54202
 1.37900    0.53869
 1.38000    0.53529
 1.38100    0.53148
 1.38200    0.52760
 1.38300    0.52243
 1.38400    0.51714
 1.38500    0.51134
 1.38600    0.50534
 1.38700    0.50077
 1.38800    0.49593
 1.38900    0.48968
 1.39000    0.48324
 1.39100    0.47656
 1.39200    0.46975
 1.39300    0.46303
 1.39400    0.45612
 1.39500    0.44852
 1.39600    0.44047
 1.39700    0.43169
 1.39800    0.42205
 1.39900    0.41200
 1.40000    0.40053
 1.40100    0.38878
 1.40200    0.37556
 1.40300    0.36215
 1.40400    0.34746
 1.40500    0.33076
 1.40600    0.31323
 1.40700    0.29332
 1.40800    0.27298
 1.40900    0.25132
 1.41000    0.22949
 1.41100    0.20676
 1.41200    0.18497
 1.41300    0.16452
 1.41400    0.14730
 1.41500    0.13131
 1.41600    0.12231
 1.41700    0.11472
 1.41800    0.11567
 1.41900    0.12020
 1.42000    0.13189
 1.42100    0.14848
 1.42200    0.16963
 1.42300    0.19593
 1.42400    0.22434
 1.42500    0.25433
 1.42600    0.28453
 1.42700    0.31518
 1.42800    0.34526
 1.42900    0.37320
 1.43000    0.37642
 1.43100    0.36251
 1.43200    0.34734
 1.43300    0.33061
 1.43400    0.31226
 1.43500    0.29405
 1.43600    0.27404
 1.43700    0.25292
 1.43800    0.23075
 1.43900    0.20906
 1.44000    0.18790
 1.44100    0.16775
 1.44200    0.14987
 1.44300    0.13426
 1.44400    0.12238
 1.44500    0.11550
 1.44600    0.11283
 1.44700    0.11749
 1.44800    0.12580
 1.44900    0.14189
 1.45000    0.16025
 1.45100    0.18558
 1.45200    0.21173
 1.45300    0.24263
 1.45400    0.27372
 1.45500    0.30431
 1.45600    0.33439
 1.45700    0.36217
 1.45800    0.38874
 1.45900    0.41423
 1.46000    0.43826
 1.46100    0.45824
 1.46200    0.47639
 1.46300    0.49229
 1.46400    0.50636
 1.46500    0.52078
 1.46600    0.53361
 1.46700    0.54248
 1.46800    0.54986
 1.46900    0.55907
 1.47000    0.56742
 1.47100    0.57426
 1.47200    0.58047
 1.47300    0.58492
 1.47400    0.58874
 1.47500    0.59250
 1.47600    0.59576
 1.47700    0.60004
 1.47800    0.60401
 1.47900    0.60575
 1.48000    0.60719
 1.48100    0.61022
 1.48200    0.61301
 1.48300    0.61450
 1.48400    0.61581
 1.48500    0.61733
 1.48600    0.61870
 1.48700    0.62094
 1.48800    0.62306
 1.48900    0.62430
 1.49000    0.62543
 1.49100    0.62471
 1.49200    0.62392
 1.49300    0.62588
 1.49400    0.62777
 1.49500    0.62858
 1.49600    0.62931
 1.49700    0.63026
 1.49800    0.63116
 1.49900    0.63279
 1.50000    0.63439
 1.50100    0.63407
 1.50200    0.63371
 1.50300    0.63314
 1.50400    0.63212
 1.50500    0.63342
 1.50600    0.63469
 1.50700    0.63391
 1.50800    0.63311
 1.50900    0.63303
 1.51000    0.63293
 1.51100    0.63126
 1.51200    0.62956
 1.51300    0.63039
 1.51400    0.63121
 1.51500    0.63056
 1.51600    0.62992
 1.51700    0.63067
 1.51800    0.63146
 1.51900    0.63105
 1.52000    0.63070
 1.52100    0.63052
 1.52200    0.63044
 1.52300    0.62823
 1.52400    0.62612
 1.52500    0.62671
 1.52600    0.62739
 1.52700    0.62834
 1.52800    0.62939
 1.52900    0.62850
 1.53000    0.62771
 1.53100    0.62947
 1.53200    0.63130
 1.53300    0.63203
 1.53400    0.63279
 1.53500    0.63357
 1.53600    0.63437
 1.53700    0.63568
 1.53800    0.63700
 1.53900    0.63763
 1.54000    0.63796
 1.54100    0.63643
 1.54200    0.63490
 1.54300    0.63485
 1.54400    0.63481
 1.54500    0.63484
 1.54600    0.63488
 1.54700    0.63378
 1.54800    0.63271
 1.54900    0.63275
 1.55000    0.63285
 1.55100    0.63218
 1.55200    0.63158
 1.55300    0.63155
 1.55400    0.63161
 1.55500    0.63106
 1.55600    0.63061
 1.55700    0.63118
 1.55800    0.63186
 1.55900    0.63287
 1.56000    0.63397
 1.56100    0.63463
 1.56200    0.63537
 1.56300    0.63583
 1.56400    0.63633
 1.56500    0.63772
 1.56600    0.63915
 1.56700    0.64018
 1.56800    0.64122
 1.56900    0.64244
 1.57000    0.64365
 1.57100    0.64454
 1.57200    0.64541
 1.57300    0.64643
 1.57400    0.64741
 1.57500    0.64624
 1.57600    0.64503
 1.57700    0.64682
 1.57800    0.64858
 1.57900    0.65007
 1.58000    0.65153
 1.58100    0.65113
 1.58200    0.65070
 1.58300    0.65059
 1.58400    0.65044
 1.58500    0.65231
 1.58600    0.65416
 1.58700    0.65422
 1.58800    0.65426
 1.58900    0.65500
 1.59000    0.65559
 1.59100    0.65425
 1.59200    0.65288
 1.59300    0.65357
 1.59400    0.65423
 1.59500    0.65331
 1.59600    0.65236
 1.59700    0.65164
 1.59800    0.65090
 1.59900    0.65038
 1.60000    0.64985
 1.60100    0.64926
 1.60200    0.64866
 1.60300    0.64826
 1.60400    0.64785
 1.60500    0.64721
 1.60600    0.64659
 1.60700    0.64674
 1.60800    0.64691
 1.60900    0.64593
 1.61000    0.64498
 1.61100    0.64436
 1.61200    0.64378
 1.61300    0.64378
 1.61400    0.64385
 1.61500    0.64392
 1.61600    0.64406
 1.61700    0.64486
 1.61800    0.64574
 1.61900    0.64531
 1.62000    0.64495
 1.62100    0.64520
 1.62200    0.64549
 1.62300    0.64528
 1.62400    0.64510
 1.62500    0.64520
 1.62600    0.64532
 1.62700    0.64530
 1.62800    0.64529
 1.62900    0.64556
 1.63000    0.64582
 1.63100    0.64500
 1.63200    0.64417
 1.63300    0.64525
 1.63400    0.64632
 1.63500    0.64767
 1.63600    0.64813
 1.63700    0.64717
 1.63800    0.64622
 1.63900    0.64597
 1.64000    0.64573
 1.64100    0.64417
 1.64200    0.64266
 1.64300    0.64277
 1.64400    0.64293
 1.64500    0.64223
 1.64600    0.64159
 1.64700    0.64112
 1.64800    0.64071
 1.64900    0.64012
 1.65000    0.63960
 1.65100    0.64048
 1.65200    0.64142
 1.65300    0.64039
 1.65400    0.63943
 1.65500    0.63978
 1.65600    0.64018
 1.65700    0.64078
 1.65800    0.64140
 1.65900    0.64242
 1.66000    0.64344
 1.66100    0.64301
 1.66200    0.64258
 1.66300    0.64296
 1.66400    0.64332
 1.66500    0.64373
 1.66600    0.64413
 1.66700    0.64339
 1.66800    0.64222
 1.66900    0.64171
 1.67000    0.64119
 1.67100    0.64035
 1.67200    0.63950
 1.67300    0.63815
 1.67400    0.63679
 1.67500    0.63655
 1.67600    0.63630
 1.67700    0.63676
 1.67800    0.63721
 1.67900    0.63614
 1.68000    0.63507
 1.68100    0.63362
 1.68200    0.63218
 1.68300    0.63210
 1.68400    0.63205
 1.68500    0.63175
 1.68600    0.63150
 1.68700    0.63092
 1.68800    0.63040
 1.68900    0.62955
 1.69000    0.62876
 1.69100    0.62735
 1.69200    0.62600
 1.69300    0.62641
 1.69400    0.62687
 1.69500    0.62697
 1.69600    0.62713
 1.69700    0.62750
 1.69800    0.62791
 1.69900    0.62763
 1.70000    0.62739
 1.70100    0.62682
 1.70200    0.62628
 1.70300    0.62641
 1.70400    0.62657
 1.70500    0.62682
 1.70600    0.62709
 1.70700    0.62770
 1.70800    0.62832
 1.70900    0.62900
 1.71000    0.62968
 1.71100    0.63060
 1.71200    0.63151
 1.71300    0.63180
 1.71400    0.63122
 1.71500    0.62997
 1.71600    0.62873
 1.71700    0.62882
 1.71800    0.62894
 1.71900    0.62855
 1.72000    0.62820
 1.72100    0.62724
 1.72200    0.62633
 1.72300    0.62572
 1.72400    0.62517
 1.72500    0.62498
 1.72600    0.62485
 1.72700    0.62540
 1.72800    0.62602
 1.72900    0.62502
 1.73000    0.62408
 1.73100    0.62320
 1.73200    0.62237
 1.73300    0.62375
 1.73400    0.62516
 1.73500    0.62585
 1.73600    0.62658
 1.73700    0.62609
 1.73800    0.62563
 1.73900    0.62550
 1.74000    0.62538
 1.74100    0.62640
 1.74200    0.62742
 1.74300    0.62820
 1.74400    0.62898
 1.74500    0.62911
 1.74600    0.62922
 1.74700    0.62943
 1.74800    0.62963
 1.74900    0.62969
 1.75000    0.62972
 1.75100    0.63022
 1.75200    0.63070
 1.75300    0.63156
 1.75400    0.63198
 1.75500    0.63186
 1.75600    0.63174
 1.75700    0.63142
 1.75800    0.63111
 1.75900    0.63116
 1.76000    0.63122
 1.76100    0.63094
 1.76200    0.63066
 1.76300    0.63039
 1.76400    0.63014
 1.76500    0.62993
 1.76600    0.62972
 1.76700    0.62913
 1.76800    0.62853
 1.76900    0.62861
 1.77000    0.62869
 1.77100    0.62891
 1.77200    0.62912
 1.77300    0.62908
 1.77400    0.62904
 1.77500    0.62822
 1.77600    0.62739
 1.77700    0.62745
 1.77800    0.62751
 1.77900    0.62812
 1.78000    0.62872
 1.78100    0.62777
 1.78200    0.62681
 1.78300    0.62573
 1.78400    0.62464
 1.78500    0.62495
 1.78600    0.62523
 1.78700    0.62550
 1.78800    0.62576
 1.78900    0.62473
 1.79000    0.62368
 1.79100    0.62274
 1.79200    0.62176
 1.79300    0.62187
 1.79400    0.62194
 1.79500    0.62124
 1.79600    0.62051
 1.79700    0.61928
 1.79800    0.61801
 1.79900    0.61661
 1.80000    0.61515
 1.80100    0.61503
 1.80200    0.61485
 1.80300    0.61449
 1.80400    0.61406
 1.80500    0.61320
 1.80600    0.61225
 1.80700    0.61114
 1.80800    0.60992
 1.80900    0.60885
 1.81000    0.60767
 1.81100    0.60560
 1.81200    0.60340
 1.81300    0.60159
 1.81400    0.59963
 1.81500    0.59728
 1.81600    0.59461
 1.81700    0.59150
 1.81800    0.58793
 1.81900    0.58547
 1.82000    0.58301
 1.82100    0.57922
 1.82200    0.57519
 1.82300    0.57037
 1.82400    0.56460
 1.82500    0.55893
 1.82600    0.55327
 1.82700    0.54651
 1.82800    0.53935
 1.82900    0.53275
 1.83000    0.52436
 1.83100    0.51479
 1.83200    0.50522
 1.83300    0.49344
 1.83400    0.48092
 1.83500    0.46818
 1.83600    0.45275
 1.83700    0.43666
 1.83800    0.42057
 1.83900    0.40153
 1.84000    0.38129
 1.84100    0.36119
 1.84200    0.33891
 1.84300    0.31533
 1.84400    0.29176
 1.84500    0.26784
 1.84600    0.24350
 1.84700    0.21902
 1.84800    0.19607
 1.84900    0.17463
 1.85000    0.15315
 1.85100    0.13480
 1.85200    0.11997
 1.85300    0.10488
 1.85400    0.09303
 1.85500    0.08627
 1.85600    0.07953
 1.85700    0.07486
 1.85800    0.07515
 1.85900    0.07548
 1.86000    0.07651
 1.86100    0.08062
 1.86200    0.08473
 1.86300    0.08891
 1.86400    0.09364
 1.86500    0.09836
 1.86600    0.10307
 1.86700    0.10643
 1.86800    0.10971
 1.86900    0.11299
 1.87000    0.11473
 1.87100    0.11621
 1.87200    0.11769
 1.87300    0.11856
 1.87400    0.11912
 1.87500    0.11950
 1.87600    0.12063
 1.87700    0.12271
 1.87800    0.12480
 1.87900    0.12845
 1.88000    0.13532
 1.88100    0.14228
 1.88200    0.15049
 1.88300    0.16487
 1.88400    0.17924
 1.88500    0.19144
 1.88600    0.17152
 1.88700    0.15174
 1.88800    0.13194
 1.88900    0.11783
 1.89000    0.10533
 1.89100    0.09279
 1.89200    0.08486
 1.89300    0.08038
 1.89400    0.07590
 1.89500    0.07350
 1.89600    0.07513
 1.89700    0.07686
 1.89800    0.07890
 1.89900    0.08350
 1.90000    0.08811
 1.90100    0.09266
 1.90200    0.09708
 1.90300    0.10125
 1.90400    0.10540
 1.90500    0.10883
 1.90600    0.11161
 1.90700    0.11431
 1.90800    0.11644
 1.90900    0.11732
 1.91000    0.11820
 1.91100    0.11917
 1.91200    0.12004
 1.91300    0.12086
 1.91400    0.12167
 1.91500    0.12493
 1.91600    0.12881
 1.91700    0.13265
 1.91800    0.13949
 1.91900    0.14905
 1.92000    0.15856
 1.92100    0.16971
 1.92200    0.18726
 1.92300    0.20491
 1.92400    0.22257
 1.92500    0.24530
 1.92600    0.26892
 1.92700    0.29262
 1.92800    0.31699
 1.92900    0.34171
 1.93000    0.36643
 1.93100    0.38999
 1.93200    0.41089
 1.93300    0.43298
 1.93400    0.45513
 1.93500    0.47196
 1.93600    0.48780
 1.93700    0.50438
 1.93800    0.51909
 1.93900    0.53133
 1.94000    0.54357
 1.94100    0.55321
 1.94200    0.56175
 1.94300    0.57045
 1.94400    0.57830
 1.94500    0.58448
 1.94600    0.58997
 1.94700    0.59379
 1.94800    0.59700
 1.94900    0.60219
 1.95000    0.60696
 1.95100    0.61132
 1.95200    0.61536
 1.95300    0.61679
 1.95400    0.61796
 1.95500    0.62046
 1.95600    0.62276
 1.95700    0.62479
 1.95800    0.62666
 1.95900    0.62847
 1.96000    0.63017
 1.96100    0.63177
 1.96200    0.63326
 1.96300    0.63461
 1.96400    0.63588
 1.96500    0.63597
 1.96600    0.63596
 1.96700    0.63639
 1.96800    0.63676
 1.96900    0.63718
 1.97000    0.63754
 1.97100    0.63910
 1.97200    0.64061
 1.97300    0.64077
 1.97400    0.64090
 1.97500    0.63914
 1.97600    0.63735
 1.97700    0.63791
 1.97800    0.63846
 1.97900    0.64054
 1.98000    0.64261
 1.98100    0.64185
 1.98200    0.64109
 1.98300    0.64054
 1.98400    0.63999
 1.98500    0.64051
 1.98600    0.64102
 1.98700    0.64069
 1.98800    0.64034
 1.98900    0.64181
 1.99000    0.64328
 1.99100    0.64248
 1.99200    0.64168
 1.99300    0.64170
 1.99400    0.64172
 1.99500    0.64207
 1.99600    0.64241
 1.99700    0.64368
 1.99800    0.64494
 1.99900    0.64347
 2.00000    0.64200
 2.00040    0.64243
 2.00080    0.64264
 2.00100    0.64260
 2.00120    0.64255
 2.00160    0.64247
 2.00200    0.64247
 2.00240    0.64238
 2.00280    0.64249
 2.00300    0.64244
 2.00320    0.64240
 2.00360    0.64208
 2.00400    0.64186
 2.00440    0.64176
 2.00480    0.64177
 2.00500    0.64182
 2.00520    0.64187
 2.00560    0.64210
 2.00600    0.64243
 2.00640    0.64253
 2.00680    0.64253
 2.00700    0.64253
 2.00720    0.64252
 2.00760    0.64241
 2.00800    0.64217
 2.00840    0.64213
 2.00880    0.64186
 2.00900    0.64175
 2.00920    0.64163
 2.00960    0.64136
 2.01000    0.64132
 2.01010    0.64131
 2.01050    0.64142
 2.01090    0.64162
 2.01100    0.64161
 2.01130    0.64179
 2.01170    0.64176
 2.01200    0.64163
 2.01210    0.64161
 2.01250    0.64157
 2.01290    0.64166
 2.01300    0.64165
 2.01330    0.64151
 2.01370    0.64161
 2.01400    0.64159
 2.01410    0.64158
 2.01450    0.64164
 2.01490    0.64186
 2.01500    0.64185
 2.01530    0.64200
 2.01570    0.64239
 2.01600    0.64256
 2.01610    0.64255
 2.01650    0.64254
 2.01690    0.64201
 2.01700    0.64200
 2.01730    0.64149
 2.01780    0.64102
 2.01800    0.64074
 2.01820    0.64046
 2.01860    0.64029
 2.01900    0.64025
 2.01940    0.64043
 2.01980    0.64049
 2.02000    0.64058
 2.02020    0.64066
 2.02060    0.64093
 2.02100    0.64086
 2.02140    0.64080
 2.02180    0.64061
 2.02200    0.64053
 2.02220    0.64044
 2.02270    0.64059
 2.02300    0.64054
 2.02310    0.64052
 2.02350    0.64055
 2.02390    0.64045
 2.02400    0.64044
 2.02430    0.64018
 2.02470    0.63982
 2.02500    0.63976
 2.02510    0.63975
 2.02550    0.63987
 2.02590    0.64042
 2.02600    0.64041
 2.02630    0.64089
 2.02680    0.64135
 2.02700    0.64147
 2.02720    0.64159
 2.02760    0.64171
 2.02800    0.64163
 2.02840    0.64135
 2.02880    0.64104
 2.02900    0.64079
 2.02920    0.64053
 2.02960    0.64012
 2.03000    0.63980
 2.03050    0.63948
 2.03090    0.63926
 2.03100    0.63925
 2.03130    0.63906
 2.03170    0.63895
 2.03200    0.63887
 2.03210    0.63886
 2.03250    0.63864
 2.03290    0.63842
 2.03300    0.63840
 2.03330    0.63820
 2.03380    0.63819
 2.03400    0.63813
 2.03420    0.63808
 2.03460    0.63796
 2.03500    0.63785
 2.03540    0.63750
 2.03580    0.63738
 2.03600    0.63743
 2.03620    0.63748
 2.03670    0.63765
 2.03700    0.63780
 2.03710    0.63779
 2.03750    0.63814
 2.03790    0.63811
 2.03800    0.63810
 2.03830    0.63807
 2.03870    0.63784
 2.03900    0.63755
 2.03920    0.63735
 2.03960    0.63669
 2.04000    0.63610
 2.04040    0.63575
 2.04080    0.63556
 2.04100    0.63560
 2.04120    0.63563
 2.04160    0.63576
 2.04200    0.63590
 2.04210    0.63589
 2.04250    0.63603
 2.04290    0.63620
 2.04300    0.63619
 2.04330    0.63622
 2.04370    0.63614
 2.04400    0.63615
 2.04420    0.63615
 2.04460    0.63620
 2.04500    0.63612
 2.04540    0.63623
 2.04580    0.63615
 2.04600    0.63602
 2.04620    0.63588
 2.04670    0.63554
 2.04700    0.63531
 2.04710    0.63530
 2.04750    0.63486
 2.04790    0.63452
 2.04800    0.63451
 2.04830    0.63435
 2.04880    0.63424
 2.04900    0.63415
 2.04920    0.63405
 2.04960    0.63396
 2.05000    0.63396
 2.05040    0.63407
 2.05090    0.63413
 2.05100    0.63412
 2.05130    0.63411
 2.05170    0.63390
 2.05200    0.63344
 2.05210    0.63342
 2.05250    0.63306
 2.05300    0.63247
 2.05340    0.63207
 2.05380    0.63163
 2.05400    0.63137
 2.05420    0.63111
 2.05470    0.63053
 2.05500    0.63047
 2.05510    0.63046
 2.05550    0.63035
 2.05590    0.63049
 2.05600    0.63048
 2.05630    0.63059
 2.05680    0.63064
 2.05700    0.63065
 2.05720    0.63067
 2.05760    0.63058
 2.05800    0.63030
 2.05850    0.62998
 2.05890    0.62967
 2.05900    0.62966
 2.05930    0.62963
 2.05970    0.62978
 2.06000    0.62983
 2.06020    0.62990
 2.06060    0.63002
 2.06100    0.62982
 2.06140    0.62942
 2.06190    0.62894
 2.06200    0.62893
 2.06230    0.62859
 2.06270    0.62874
 2.06300    0.62904
 2.06310    0.62903
 2.06360    0.62943
 2.06400    0.62937
 2.06440    0.62932
 2.06480    0.62886
 2.06500    0.62871
 2.06530    0.62850
 2.06570    0.62824
 2.06600    0.62814
 2.06610    0.62813
 2.06650    0.62792
 2.06700    0.62767
 2.06740    0.62736
 2.06780    0.62726
 2.06800    0.62739
 2.06830    0.62759
 2.06870    0.62802
 2.06900    0.62860
 2.06910    0.62859
 2.06950    0.62913
 2.07000    0.62926
 2.07040    0.62945
 2.07080    0.62955
 2.07100    0.62965
 2.07130    0.62981
 2.07170    0.63001
 2.07200    0.62992
 2.07210    0.62991
 2.07250    0.62983
 2.07300    0.62966
 2.07340    0.62947
 2.07380    0.62938
 2.07400    0.62937
 2.07430    0.62935
 2.07470    0.62927
 2.07500    0.62923
 2.07510    0.62922
 2.07560    0.62927
 2.07600    0.62942
 2.07640    0.62979
 2.07680    0.63004
 2.07700    0.63025
 2.07730    0.63056
 2.07770    0.63094
 2.07800    0.63136
 2.07810    0.63135
 2.07860    0.63171
 2.07900    0.63197
 2.07940    0.63194
 2.07990    0.63198
 2.08000    0.63197
 2.08030    0.63170
 2.08070    0.63168
 2.08100    0.63174
 2.08120    0.63178
 2.08160    0.63205
 2.08200    0.63203
 2.08250    0.63223
 2.08290    0.63210
 2.08300    0.63209
 2.08330    0.63196
 2.08380    0.63196
 2.08400    0.63205
 2.08420    0.63214
 2.08460    0.63234
 2.08500    0.63260
 2.08510    0.63259
 2.08550    0.63292
 2.08590    0.63310
 2.08600    0.63309
 2.08640    0.63309
 2.08680    0.63335
 2.08700    0.63350
 2.08720    0.63364
 2.08770    0.63392
 2.08800    0.63398
 2.08810    0.63397
 2.08860    0.63386
 2.08900    0.63382
 2.08940    0.63351
 2.08990    0.63325
 2.09000    0.63324
 2.09030    0.63308
 2.09070    0.63302
 2.09100    0.63288
 2.09120    0.63278
 2.09160    0.63259
 2.09200    0.63226
 2.09210    0.63225
 2.09250    0.63202
 2.09290    0.63161
 2.09300    0.63159
 2.09340    0.63127
 2.09380    0.63098
 2.09400    0.63093
 2.09420    0.63088
 2.09470    0.63055
 2.09500    0.63039
 2.09510    0.63038
 2.09560    0.63013
 2.09600    0.62994
 2.09640    0.63007
 2.09690    0.63010
 2.09700    0.63009
 2.09730    0.63031
 2.09780    0.63027
 2.09800    0.63019
 2.09820    0.63010
 2.09860    0.62993
 2.09900    0.62974
 2.09910    0.62973
 2.09950    0.62946
 2.10000    0.62926
 2.10040    0.62925
 2.10080    0.62927
 2.10100    0.62922
 2.10130    0.62915
 2.10170    0.62883
 2.10200    0.62871
 2.10220    0.62863
 2.10260    0.62823
 2.10300    0.62805
 2.10350    0.62784
 2.10390    0.62767
 2.10400    0.62766
 2.10440    0.62751
 2.10480    0.62724
 2.10500    0.62717
 2.10530    0.62708
 2.10570    0.62714
 2.10600    0.62731
 2.10610    0.62730
 2.10660    0.62771
 2.10700    0.62819
 2.10750    0.62809
 2.10790    0.62796
 2.10800    0.62795
 2.10840    0.62776
 2.10880    0.62744
 2.10900    0.62741
 2.10930    0.62737
 2.10970    0.62738
 2.11000    0.62759
 2.11010    0.62758
 2.11060    0.62782
 2.11100    0.62792
 2.11150    0.62807
 2.11190    0.62795
 2.11200    0.62794
 2.11240    0.62781
 2.11280    0.62774
 2.11300    0.62776
 2.11330    0.62779
 2.11370    0.62783
 2.11400    0.62792
 2.11420    0.62799
 2.11460    0.62824
 2.11500    0.62831
 2.11510    0.62829
 2.11550    0.62818
 2.11600    0.62803
 2.11640    0.62791
 2.11690    0.62802
 2.11700    0.62801
 2.11730    0.62817
 2.11770    0.62857
 2.11800    0.62882
 2.11820    0.62899
 2.11860    0.62926
 2.11900    0.62956
 2.11910    0.62955
 2.11950    0.62936
 2.12000    0.62924
 2.12040    0.62906
 2.12090    0.62886
 2.12100    0.62885
 2.12130    0.62867
 2.12180    0.62849
 2.12200    0.62855
 2.12220    0.62860
 2.12270    0.62884
 2.12300    0.62894
 2.12310    0.62893
 2.12360    0.62922
 2.12400    0.62933
 2.12450    0.62947
 2.12490    0.62981
 2.12500    0.62980
 2.12540    0.63013
 2.12590    0.63052
 2.12600    0.63051
 2.12630    0.63089
 2.12680    0.63113
 2.12700    0.63118
 2.12720    0.63123
 2.12770    0.63127
 2.12800    0.63137
 2.12810    0.63136
 2.12860    0.63141
 2.12900    0.63151
 2.12950    0.63174
 2.12990    0.63177
 2.13000    0.63176
 2.13040    0.63184
 2.13080    0.63191
 2.13100    0.63199
 2.13130    0.63210
 2.13170    0.63217
 2.13200    0.63228
 2.13220    0.63235
 2.13270    0.63256
 2.13300    0.63263
 2.13310    0.63262
 2.13360    0.63271
 2.13400    0.63287
 2.13450    0.63285
 2.13490    0.63268
 2.13500    0.63267
 2.13540    0.63265
 2.13580    0.63261
 2.13600    0.63264
 2.13630    0.63268
 2.13680    0.63275
 2.13700    0.63277
 2.13720    0.63279
 2.13770    0.63273
 2.13800    0.63277
 2.13810    0.63276
 2.13860    0.63305
 2.13900    0.63320
 2.13950    0.63325
 2.14000    0.63330
 2.14040    0.63333
 2.14090    0.63317
 2.14100    0.63317
 2.14130    0.63308
 2.14180    0.63303
 2.14200    0.63299
 2.14220    0.63296
 2.14270    0.63299
 2.14300    0.63302
 2.14320    0.63303
 2.14360    0.63315
 2.14400    0.63318
 2.14410    0.63317
 2.14450    0.63343
 2.14500    0.63355
 2.14550    0.63357
 2.14590    0.63358
 2.14600    0.63358
 2.14640    0.63351
 2.14680    0.63330
 2.14700    0.63322
 2.14730    0.63310
 2.14780    0.63292
 2.14800    0.63297
 2.14820    0.63301
 2.14870    0.63320
 2.14900    0.63344
 2.14920    0.63357
 2.14960    0.63391
 2.15000    0.63392
 2.15010    0.63389
 2.15050    0.63381
 2.15100    0.63359
 2.15150    0.63294
 2.15190    0.63257
 2.15200    0.63255
 2.15240    0.63207
 2.15290    0.63195
 2.15300    0.63193
 2.15330    0.63193
 2.15380    0.63180
 2.15400    0.63191
 2.15420    0.63201
 2.15470    0.63197
 2.15500    0.63214
 2.15520    0.63225
 2.15560    0.63237
 2.15600    0.63234
 2.15610    0.63232
 2.15660    0.63231
 2.15700    0.63207
 2.15750    0.63151
 2.15800    0.63104
 2.15840    0.63060
 2.15890    0.63044
 2.15900    0.63042
 2.15940    0.63021
 2.15980    0.63000
 2.16000    0.62994
 2.16030    0.62981
 2.16080    0.62992
 2.16100    0.62994
 2.16120    0.62995
 2.16170    0.63006
 2.16200    0.62993
 2.16220    0.62984
 2.16260    0.62967
 2.16300    0.62940
 2.16310    0.62938
 2.16360    0.62905
 2.16400    0.62888
 2.16450    0.62875
 2.16500    0.62885
 2.16540    0.62899
 2.16590    0.62894
 2.16600    0.62892
 2.16640    0.62864
 2.16680    0.62824
 2.16700    0.62802
 2.16730    0.62770
 2.16780    0.62718
 2.16800    0.62700
 2.16830    0.62673
 2.16870    0.62646
 2.16900    0.62643
 2.16920    0.62642
 2.16970    0.62651
 2.17000    0.62681
 2.17010    0.62679
 2.17060    0.62676
 2.17100    0.62667
 2.17110    0.62664
 2.17160    0.62625
 2.17200    0.62576
 2.17250    0.62523
 2.17300    0.62503
 2.17340    0.62505
 2.17390    0.62481
 2.17400    0.62479
 2.17440    0.62444
 2.17490    0.62397
 2.17500    0.62395
 2.17530    0.62365
 2.17580    0.62331
 2.17600    0.62332
 2.17630    0.62333
 2.17680    0.62321
 2.17700    0.62313
 2.17720    0.62305
 2.17770    0.62275
 2.17800    0.62262
 2.17820    0.62254
 2.17860    0.62238
 2.17900    0.62220
 2.17910    0.62218
 2.17960    0.62228
 2.18000    0.62239
 2.18010    0.62237
 2.18050    0.62253
 2.18100    0.62231
 2.18150    0.62197
 2.18200    0.62144
 2.18250    0.62094
 2.18290    0.62063
 2.18300    0.62060
 2.18340    0.62034
 2.18390    0.62002
 2.18400    0.62000
 2.18440    0.61971
 2.18480    0.61955
 2.18500    0.61944
 2.18530    0.61926
 2.18580    0.61929
 2.18600    0.61925
 2.18630    0.61919
 2.18670    0.61926
 2.18700    0.61902
 2.18720    0.61886
 2.18770    0.61868
 2.18800    0.61852
 2.18820    0.61841
 2.18870    0.61824
 2.18900    0.61840
 2.18910    0.61838
 2.18960    0.61853
 2.19000    0.61859
 2.19010    0.61857
 2.19060    0.61855
 2.19100    0.61843
 2.19110    0.61841
 2.19150    0.61811
 2.19200    0.61786
 2.19250    0.61773
 2.19300    0.61752
 2.19350    0.61740
 2.19390    0.61740
 2.19400    0.61737
 2.19440    0.61721
 2.19490    0.61678
 2.19500    0.61676
 2.19540    0.61660
 2.19590    0.61650
 2.19600    0.61648
 2.19640    0.61641
 2.19680    0.61675
 2.19700    0.61684
 2.19730    0.61699
 2.19780    0.61722
 2.19800    0.61723
 2.19830    0.61724
 2.19880    0.61730
 2.19900    0.61719
 2.19930    0.61702
 2.19970    0.61697
 2.20000    0.61699
 2.20020    0.61698
 2.20070    0.61678
 2.20100    0.61658
 2.20120    0.61645
 2.20170    0.61616
 2.20200    0.61610
 2.20220    0.61606
 2.20260    0.61598
 2.20300    0.61609
 2.20310    0.61604
 2.20360    0.61620
 2.20400    0.61634
 2.20410    0.61630
 2.20460    0.61634
 2.20500    0.61629
 2.20510    0.61625
 2.20560    0.61587
 2.20600    0.61549
 2.20650    0.61520
 2.20700    0.61472
 2.20750    0.61434
 2.20800    0.61408
 2.20850    0.61380
 2.20900    0.61373
 2.20950    0.61379
 2.20990    0.61399
 2.21000    0.61394
 2.21040    0.61411
 2.21090    0.61408
 2.21100    0.61404
 2.21140    0.61405
 2.21190    0.61402
 2.21200    0.61398
 2.21240    0.61396
 2.21290    0.61393
 2.21300    0.61389
 2.21340    0.61390
 2.21390    0.61379
 2.21400    0.61375
 2.21430    0.61384
 2.21480    0.61370
 2.21500    0.61369
 2.21530    0.61369
 2.21580    0.61355
 2.21600    0.61341
 2.21630    0.61314
 2.21680    0.61270
 2.21700    0.61257
 2.21730    0.61231
 2.21780    0.61206
 2.21800    0.61197
 2.21830    0.61183
 2.21880    0.61158
 2.21900    0.61148
 2.21930    0.61132
 2.21980    0.61110
 2.22000    0.61090
 2.22020    0.61071
 2.22070    0.61038
 2.22100    0.61026
 2.22120    0.61018
 2.22170    0.60985
 2.22200    0.60966
 2.22220    0.60953
 2.22270    0.60908
 2.22300    0.60883
 2.22320    0.60866
 2.22370    0.60813
 2.22400    0.60801
 2.22420    0.60793
 2.22470    0.60780
 2.22500    0.60774
 2.22520    0.60770
 2.22570    0.60760
 2.22600    0.60741
 2.22620    0.60729
 2.22670    0.60698
 2.22700    0.60660
 2.22720    0.60636
 2.22770    0.60593
 2.22800    0.60556
 2.22820    0.60532
 2.22870    0.60474
 2.22900    0.60456
 2.22920    0.60445
 2.22970    0.60394
 2.23000    0.60376
 2.23020    0.60361
 2.23060    0.60322
 2.23100    0.60270
 2.23110    0.60266
 2.23160    0.60234
 2.23200    0.60214
 2.23210    0.60210
 2.23260    0.60192
 2.23300    0.60180
 2.23310    0.60176
 2.23360    0.60150
 2.23400    0.60139
 2.23410    0.60135
 2.23460    0.60110
 2.23500    0.60072
 2.23510    0.60068
 2.23560    0.60032
 2.23600    0.59984
 2.23610    0.59980
 2.23660    0.59913
 2.23700    0.59877
 2.23710    0.59873
 2.23760    0.59830
 2.23800    0.59803
 2.23810    0.59799
 2.23860    0.59766
 2.23900    0.59740
 2.23910    0.59736
 2.23960    0.59704
 2.24000    0.59689
 2.24010    0.59685
 2.24060    0.59693
 2.24100    0.59710
 2.24110    0.59706
 2.24160    0.59715
 2.24200    0.59706
 2.24220    0.59702
 2.24270    0.59690
 2.24300    0.59688
 2.24320    0.59687
 2.24370    0.59703
 2.24400    0.59702
 2.24420    0.59702
 2.24470    0.59740
 2.24500    0.59746
 2.24520    0.59751
 2.24570    0.59768
 2.24600    0.59768
 2.24620    0.59768
 2.24670    0.59750
 2.24700    0.59742
 2.24720    0.59738
 2.24770    0.59750
 2.24800    0.59743
 2.24820    0.59739
 2.24870    0.59761
 2.24900    0.59762
 2.24920    0.59762
 2.24970    0.59764
 2.25000    0.59760
 2.25020    0.59755
 2.25070    0.59740
 2.25100    0.59733
 2.25120    0.59728
 2.25170    0.59717
 2.25200    0.59720
 2.25230    0.59723
 2.25280    0.59743
 2.25300    0.59749
 2.25330    0.59759
 2.25380    0.59778
 2.25400    0.59778
 2.25430    0.59777
 2.25480    0.59775
 2.25500    0.59766
 2.25530    0.59753
 2.25580    0.59733
 2.25600    0.59724
 2.25630    0.59711
 2.25680    0.59688
 2.25700    0.59684
 2.25730    0.59678
 2.25780    0.59686
 2.25800    0.59695
 2.25840    0.59715
 2.25890    0.59739
 2.25900    0.59735
 2.25940    0.59755
 2.25990    0.59755
 2.26000    0.59751
 2.26040    0.59747
 2.26090    0.59738
 2.26100    0.59734
 2.26140    0.59742
 2.26190    0.59739
 2.26200    0.59735
 2.26240    0.59742
 2.26300    0.59720
 2.26350    0.59717
 2.26400    0.59705
 2.26450    0.59711
 2.26500    0.59717
 2.26550    0.59732
 2.26600    0.59729
 2.26650    0.59735
 2.26700    0.59760
 2.26710    0.59755
 2.26760    0.59786
 2.26800    0.59810
 2.26810    0.59806
 2.26860    0.59828
 2.26900    0.59834
 2.26910    0.59830
 2.26960    0.59838
 2.27000    0.59856
 2.27010    0.59851
 2.27070    0.59812
 2.27100    0.59782
 2.27120    0.59762
 2.27170    0.59691
 2.27200    0.59655
 2.27220    0.59632
 2.27270    0.59551
 2.27300    0.59527
 2.27320    0.59510
 2.27380    0.59441
 2.27400    0.59417
 2.27430    0.59381
 2.27480    0.59319
 2.27500    0.59295
 2.27530    0.59259
 2.27580    0.59200
 2.27600    0.59183
 2.27630    0.59158
 2.27690    0.59126
 2.27700    0.59122
 2.27740    0.59097
 2.27790    0.59052
 2.27800    0.59048
 2.27840    0.59004
 2.27890    0.58960
 2.27900    0.58956
 2.27950    0.58912
 2.28000    0.58849
 2.28050    0.58805
 2.28100    0.58741
 2.28150    0.58676
 2.28200    0.58640
 2.28210    0.58636
 2.28260    0.58608
 2.28300    0.58597
 2.28310    0.58593
 2.28360    0.58558
 2.28400    0.58521
 2.28410    0.58516
 2.28470    0.58459
 2.28500    0.58433
 2.28520    0.58415
 2.28570    0.58370
 2.28600    0.58349
 2.28620    0.58334
 2.28680    0.58282
 2.28700    0.58263
 2.28730    0.58235
 2.28780    0.58210
 2.28800    0.58203
 2.28830    0.58192
 2.28890    0.58177
 2.28900    0.58173
 2.28940    0.58150
 2.28990    0.58131
 2.29000    0.58127
 2.29040    0.58105
 2.29100    0.58074
 2.29150    0.58048
 2.29200    0.58023
 2.29250    0.57993
 2.29300    0.57985
 2.29310    0.57981
 2.29360    0.57967
 2.29400    0.57956
 2.29410    0.57952
 2.29460    0.57911
 2.29500    0.57878
 2.29520    0.57862
 2.29570    0.57820
 2.29600    0.57811
 2.29620    0.57805
 2.29670    0.57790
 2.29700    0.57780
 2.29730    0.57770
 2.29780    0.57746
 2.29800    0.57736
 2.29830    0.57721
 2.29890    0.57682
 2.29900    0.57678
 2.29940    0.57650
 2.29990    0.57636
 2.30000    0.57632
 2.30040    0.57620
 2.30100    0.57595
 2.30150    0.57570
 2.30200    0.57534
 2.30260    0.57499
 2.30300    0.57468
 2.30310    0.57463
 2.30360    0.57434
 2.30400    0.57403
 2.30410    0.57399
 2.30470    0.57344
 2.30500    0.57322
 2.30520    0.57307
 2.30570    0.57261
 2.30600    0.57233
 2.30630    0.57205
 2.30680    0.57159
 2.30700    0.57135
 2.30730    0.57101
 2.30790    0.57042
 2.30800    0.57038
 2.30840    0.56991
 2.30890    0.56952
 2.30900    0.56948
 2.30950    0.56908
 2.31000    0.56878
 2.31050    0.56851
 2.31100    0.56813
 2.31110    0.56808
 2.31160    0.56761
 2.31200    0.56738
 2.31210    0.56734
 2.31270    0.56708
 2.31300    0.56696
 2.31320    0.56688
 2.31370    0.56651
 2.31400    0.56624
 2.31430    0.56597
 2.31480    0.56559
 2.31500    0.56541
 2.31540    0.56505
 2.31590    0.56442
 2.31600    0.56437
 2.31640    0.56379
 2.31700    0.56324
 2.31750    0.56276
 2.31800    0.56237
 2.31860    0.56199
 2.31900    0.56191
 2.31910    0.56186
 2.31960    0.56193
 2.32000    0.56169
 2.32020    0.56157
 2.32070    0.56134
 2.32100    0.56110
 2.32130    0.56086
 2.32180    0.56037
 2.32200    0.56017
 2.32230    0.55987
 2.32290    0.55924
 2.32300    0.55920
 2.32340    0.55877
 2.32400    0.55828
 2.32450    0.55766
 2.32500    0.55735
 2.32560    0.55664
 2.32600    0.55620
 2.32610    0.55616
 2.32670    0.55561
 2.32700    0.55540
 2.32720    0.55526
 2.32770    0.55490
 2.32800    0.55474
 2.32830    0.55457
 2.32880    0.55413
 2.32900    0.55397
 2.32940    0.55367
 2.32990    0.55338
 2.33000    0.55334
 2.33050    0.55289
 2.33100    0.55237
 2.33150    0.55182
 2.33200    0.55120
 2.33210    0.55116
 2.33260    0.55048
 2.33300    0.55012
 2.33320    0.54994
 2.33370    0.54940
 2.33400    0.54909
 2.33430    0.54877
 2.33480    0.54811
 2.33500    0.54789
 2.33540    0.54746
 2.33590    0.54686
 2.33600    0.54682
 2.33640    0.54658
 2.33700    0.54609
 2.33750    0.54579
 2.33800    0.54526
 2.33810    0.54522
 2.33860    0.54460
 2.33900    0.54420
 2.33920    0.54399
 2.33970    0.54347
 2.34000    0.54325
 2.34030    0.54303
 2.34080    0.54262
 2.34100    0.54246
 2.34140    0.54213
 2.34190    0.54157
 2.34200    0.54153
 2.34250    0.54081
 2.34300    0.53993
 2.34360    0.53921
 2.34400    0.53890
 2.34410    0.53886
 2.34470    0.53830
 2.34500    0.53797
 2.34520    0.53775
 2.34580    0.53697
 2.34600    0.53671
 2.34630    0.53632
 2.34690    0.53543
 2.34700    0.53538
 2.34740    0.53505
 2.34800    0.53443
 2.34850    0.53410
 2.34900    0.53354
 2.34910    0.53350
 2.34960    0.53269
 2.35000    0.53220
 2.35020    0.53190
 2.35070    0.53108
 2.35100    0.53054
 2.35130    0.53000
 2.35180    0.52943
 2.35200    0.52925
 2.35240    0.52887
 2.35290    0.52822
 2.35300    0.52818
 2.35350    0.52755
 2.35400    0.52688
 2.35460    0.52596
 2.35500    0.52529
 2.35520    0.52496
 2.35570    0.52410
 2.35600    0.52364
 2.35630    0.52317
 2.35680    0.52227
 2.35700    0.52191
 2.35740    0.52117
 2.35790    0.52004
 2.35800    0.52000
 2.35850    0.51907
 2.35900    0.51827
 2.35960    0.51738
 2.36000    0.51678
 2.36020    0.51653
 2.36070    0.51608
 2.36100    0.51565
 2.36130    0.51522
 2.36180    0.51459
 2.36200    0.51434
 2.36240    0.51384
 2.36290    0.51315
 2.36300    0.51312
 2.36350    0.51242
 2.36400    0.51166
 2.36410    0.51162
 2.36460    0.51096
 2.36500    0.51027
 2.36520    0.50993
 2.36570    0.50915
 2.36600    0.50868
 2.36630    0.50821
 2.36690    0.50716
 2.36700    0.50712
 2.36740    0.50644
 2.36800    0.50572
 2.36850    0.50506
 2.36900    0.50442
 2.36910    0.50438
 2.36970    0.50349
 2.37000    0.50310
 2.37020    0.50281
 2.37080    0.50192
 2.37100    0.50163
 2.37140    0.50106
 2.37190    0.50020
 2.37200    0.50017
 2.37250    0.49952
 2.37300    0.49892
 2.37360    0.49821
 2.37400    0.49792
 2.37420    0.49779
 2.37470    0.49751
 2.37500    0.49717
 2.37530    0.49686
 2.37590    0.49603
 2.37600    0.49599
 2.37640    0.49543
 2.37700    0.49477
 2.37760    0.49401
 2.37800    0.49335
 2.37810    0.49331
 2.37870    0.49237
 2.37900    0.49200
 2.37930    0.49166
 2.37980    0.49098
 2.38000    0.49084
 2.38040    0.49064
 2.38100    0.49031
 2.38150    0.49026
 2.38200    0.49002
 2.38210    0.48998
 2.38270    0.48974
 2.38300    0.48954
 2.38320    0.48942
 2.38380    0.48923
 2.38400    0.48912
 2.38440    0.48893
 2.38490    0.48858
 2.38500    0.48855
 2.38550    0.48848
 2.38600    0.48839
 2.38610    0.48835
 2.38660    0.48832
 2.38700    0.48823
 2.38720    0.48819
 2.38780    0.48818
 2.38800    0.48808
 2.38830    0.48794
 2.38890    0.48779
 2.38900    0.48775
 2.38950    0.48764
 2.39000    0.48761
 2.39010    0.48757
 2.39060    0.48769
 2.39100    0.48764
 2.39120    0.48762
 2.39180    0.48763
 2.39200    0.48765
 2.39230    0.48770
 2.39290    0.48775
 2.39300    0.48772
 2.39350    0.48778
 2.39400    0.48778
 2.39410    0.48775
 2.39460    0.48801
 2.39500    0.48800
 2.39520    0.48801
 2.39580    0.48794
 2.39600    0.48786
 2.39640    0.48770
 2.39690    0.48755
 2.39700    0.48752
 2.39750    0.48748
 2.39800    0.48759
 2.39810    0.48755
 2.39870    0.48770
 2.39900    0.48791
 2.39920    0.48804
 2.39980    0.48822
 2.40000    0.48829
 2.40040    0.48466
 2.40100    0.47897
 2.40150    0.47404
 2.40200    0.46923
 2.40210    0.46822
 2.40270    0.46254
 2.40300    0.45964
 2.40330    0.45674
 2.40380    0.45196
 2.40400    0.45008
 2.40440    0.44631
 2.40500    0.44058
 2.40560    0.43482
 2.40600    0.43103
 2.40620    0.42914
 2.40670    0.42433
 2.40700    0.42146
 2.40730    0.41857
 2.40790    0.41296
 2.40800    0.41195
 2.40850    0.40722
 2.40900    0.40248
 2.40910    0.40147
 2.40960    0.39671
 2.41000    0.39289
 2.41020    0.39069
 2.41080    0.38410
 2.41100    0.38192
 2.41140    0.37756
 2.41200    0.37116
 2.41250    0.36576
 2.41300    0.36025
 2.41310    0.35925
 2.41370    0.35269
 2.41400    0.34941
 2.41430    0.34613
 2.41490    0.33963
 2.41500    0.33863
 2.41550    0.33323
 2.41600    0.32784
 2.41660    0.32135
 2.41700    0.31716
 2.41720    0.31507
 2.41780    0.30880
 2.41800    0.30671
 2.41840    0.30256
 2.41900    0.29640
 2.41950    0.29116
 2.42000    0.28588
 2.42010    0.28491
 2.42070    0.27868
 2.42100    0.27565
 2.42130    0.27262
 2.42190    0.26662
 2.42200    0.26565
 2.42250    0.26058
 2.42300    0.25562
 2.42310    0.25466
 2.42370    0.24869
 2.42400    0.24574
 2.42420    0.24378
 2.42480    0.23787
 2.42500    0.23590
 2.42540    0.23198
 2.42600    0.22608
 2.42660    0.22024
 2.42700    0.21638
 2.42720    0.21445
 2.42780    0.20868
 2.42800    0.20677
 2.42840    0.20295
 2.42900    0.19721
 2.42950    0.19245
 2.43000    0.18764
 2.43010    0.18669
 2.43070    0.18091
 2.43100    0.17804
 2.43130    0.17519
 2.43190    0.16947
 2.43200    0.16852
 2.43250    0.16375
 2.43300    0.15899
 2.43310    0.15804
 2.43370    0.15235
 2.43400    0.14950
 2.43430    0.14666
 2.43490    0.14099
 2.43500    0.14005
 2.43550    0.13534
 2.43600    0.13067
 2.43610    0.12973
 2.43660    0.12505
 2.43700    0.12132
 2.43720    0.11945
 2.43780    0.11388
 2.43800    0.11201
 2.43840    0.10828
 2.43900    0.10271
 2.43960    0.09711
 2.44000    0.09335
 2.44020    0.09148
 2.44080    0.08590
 2.44100    0.08403
 2.44140    0.08030
 2.44200    0.07472
 2.44260    0.06914
 2.44300    0.06542
 2.44320    0.06357
 2.44380    0.05801
 2.44400    0.05615
 2.44440    0.05243
 2.44500    0.04685
 2.44560    0.04127
 2.44600    0.03754
 2.44620    0.03567
 2.44680    0.03005
 2.44700    0.02818
 2.44740    0.02444
 2.44800    0.01882
 2.44860    0.01319
 2.44900    0.00944
 2.44920    0.00756
 2.44980    0.00193
 2.45000    0.00005
 2.45040    0.00005
 2.45100    0.00005
 2.45160    0.00005
 2.45200    0.00005
 2.45220    0.00005
 2.45280    0.00005
 2.45300    0.00005
 2.45340    0.00005
 2.45400    0.00005
 2.45460    0.00005
 2.45500    0.00005
 2.45520    0.00005
 2.45580    0.00005
 2.45600    0.00005
 2.45640    0.00005
 2.45700    0.00005
 2.45760    0.00005
 2.45800    0.00005
 2.45820    0.00005
 2.45880    0.00005
 2.45900    0.00005
 2.45940    0.00005
 2.46000    0.00005
 2.46060    0.00005
 2.46100    0.00005
 2.46120    0.00005
 2.46180    0.00005
 2.46200    0.00005
 2.46240    0.00005
 2.46300    0.00005
 2.46310    0.00005
 2.46370    0.00005
 2.46400    0.00005
 2.46430    0.00005
 2.46490    0.00005
 2.46500    0.00005
 2.46550    0.00005
 2.46600    0.00005
 2.46610    0.00005
 2.46670    0.00005
 2.46700    0.00005
 2.46730    0.00005
 2.46790    0.00005
 2.46800    0.00005
 2.46850    0.00005
 2.46900    0.00005
 2.46910    0.00005
 2.46970    0.00005
 2.47000    0.00005
 2.47040    0.00005
 2.47100    0.00005
 2.47160    0.00005
 2.47200    0.00005
 2.47220    0.00005
 2.47280    0.00004
 2.47300    0.00004
 2.47340    0.00004
 2.47400    0.00004
 2.47460    0.00004
 2.47500    0.00004
 2.47520    0.00004
 2.47590    0.00004
 2.47600    0.00004
 2.47650    0.00004
 2.47700    0.00004
 2.47710    0.00004
 2.47770    0.00004
 2.47800    0.00004
 2.47830    0.00004
 2.47890    0.00004
 2.47900    0.00004
 2.47950    0.00004
 2.48000    0.00004
 2.48020    0.00004
 2.48080    0.00004
 2.48100    0.00004
 2.48140    0.00004
 2.48200    0.00004
 2.48260    0.00004
 2.48300    0.00004
 2.48320    0.00004
 2.48390    0.00004
 2.48400    0.00004
 2.48450    0.00004
 2.48500    0.00004
 2.48510    0.00004
 2.48570    0.00004
 2.48600    0.00004
 2.48630    0.00004
 2.48690    0.00004
 2.48700    0.00004
 2.48760    0.00004
 2.48800    0.00004
 2.48820    0.00004
 2.48880    0.00004
 2.48900    0.00004
 2.48940    0.00004
 2.49000    0.00004
 2.49070    0.00004
 2.49100    0.00004
 2.49130    0.00004
 2.49190    0.00004
 2.49200    0.00004
 2.49250    0.00004
 2.49300    0.00004
 2.49310    0.00004
 2.49380    0.00004
 2.49400    0.00004
 2.49440    0.00004
 2.49500    0.00004
 2.49560    0.00004
 2.49600    0.00004
 2.49630    0.00004
 2.49690    0.00004
 2.49700    0.00004
 2.49750    0.00004
 2.49800    0.00004
 2.49810    0.00004
 2.49880    0.00004
 2.49900    0.00004
 2.49940    0.00004
 2.50000    0.00004
 2.50060    0.00004
 2.50130    0.00004
 2.50190    0.00004
 2.50250    0.00004
 2.50310    0.00004
 2.50380    0.00004
 2.50440    0.00004
 2.50500    0.00004
 2.50560    0.00004
 2.50630    0.00004
 2.50690    0.00004
 2.50750    0.00004
 2.50820    0.00004
 2.50880    0.00004
 2.50940    0.00004
 2.51000    0.00004
 2.51070    0.00003
 2.51130    0.00003
 2.51190    0.00003
 2.51260    0.00003
 2.51320    0.00003
 2.51380    0.00003
 2.51450    0.00003
 2.51510    0.00003
 2.51570    0.00003
 2.51640    0.00003
 2.51700    0.00003
 2.51760    0.00003
 2.51830    0.00003
 2.51890    0.00003
 2.51950    0.00003
 2.52000    0.00003
 2.52020    0.00003
 2.52080    0.00003
 2.52100    0.00003
 2.52140    0.00003
 2.52210    0.00003
 2.52270    0.00003
 2.52330    0.00003
 2.52400    0.00003
 2.52460    0.00003
 2.52530    0.00003
 2.52590    0.00003
 2.52650    0.00003
 2.52720    0.00003
 2.52780    0.00003
 2.52840    0.00003
 2.52910    0.00003
 2.52970    0.00003
 2.53000    0.00003
 2.53040    0.00003
 2.53100    0.00003
 2.53160    0.00003
 2.53230    0.00003
 2.53290    0.00003
 2.53360    0.00003
 2.53420    0.00003
 2.53490    0.00003
 2.53550    0.00003
 2.53610    0.00003
 2.53680    0.00003
 2.53740    0.00003
 2.53810    0.00003
 2.53870    0.00003
 2.53940    0.00003
 2.54000    0.00003
 2.54070    0.00003
 2.54130    0.00003
 2.54190    0.00003
 2.54260    0.00003
 2.54320    0.00003
 2.54390    0.00003
 2.54450    0.00003
 2.54520    0.00003
 2.54580    0.00003
 2.54650    0.00003
 2.54710    0.00003
 2.54780    0.00003
 2.54840    0.00003
 2.54900    0.00003
 2.54910    0.00003
 2.54970    0.00003
 2.55000    0.00003
 2.55040    0.00003
 2.55100    0.00003
 2.55170    0.00003
 2.55230    0.00003
 2.55300    0.00003
 2.55360    0.00003
 2.55430    0.00003
 2.55490    0.00003
 2.55560    0.00003
 2.55620    0.00003
 2.55690    0.00003
 2.55750    0.00003
 2.55820    0.00003
 2.55890    0.00003
 2.55950    0.00002
 2.56000    0.00002
 2.56020    0.00002
 2.56080    0.00002
 2.56150    0.00002
 2.56210    0.00002
 2.56280    0.00002
 2.56340    0.00002
 2.56410    0.00002
 2.56480    0.00002
 2.56540    0.00002
 2.56610    0.00002
 2.56670    0.00002
 2.56740    0.00002
 2.56810    0.00002
 2.56870    0.00002
 2.56940    0.00002
 2.57000    0.00002
 2.57070    0.00002
 2.57140    0.00002
 2.57200    0.00002
 2.57270    0.00002
 2.57330    0.00002
 2.57400    0.00002
 2.57470    0.00002
 2.57530    0.00002
 2.57600    0.00002
 2.57670    0.00002
 2.57700    0.00002
 2.57730    0.00002
 2.57800    0.00002
 2.57860    0.00002
 2.57930    0.00002
 2.58000    0.00002
 2.58060    0.00002
 2.58130    0.00002
 2.58200    0.00002
 2.58260    0.00002
 2.58330    0.00002
 2.58400    0.00002
 2.58460    0.00002
 2.58530    0.00002
 2.58600    0.00002
 2.58670    0.00002
 2.58730    0.00002
 2.58800    0.00002
 2.58870    0.00002
 2.58930    0.00002
 2.59000    0.00002
 2.59070    0.00002
 2.59130    0.00002
 2.59200    0.00002
 2.59270    0.00002
 2.59340    0.00002
 2.59400    0.00002
 2.59470    0.00002
 2.59540    0.00002
 2.59610    0.00002
 2.59670    0.00002
 2.59740    0.00002
 2.59810    0.00002
 2.59880    0.00002
 2.59940    0.00002
 2.60000    0.00002
 2.60010    0.00002
 2.60080    0.00002
 2.60150    0.00002
 2.60210    0.00002
 2.60280    0.00002
 2.60350    0.00002
 2.60420    0.00002
 2.60480    0.00002
 2.60550    0.00002
 2.60600    0.00002
 2.60620    0.00002
 2.60690    0.00002
 2.60760    0.00002
 2.60820    0.00002
 2.60890    0.00002
 2.60960    0.00002
 2.61000    0.00002
 2.61030    0.00002
 2.61100    0.00002
 2.61160    0.00002
 2.61230    0.00001
 2.61300    0.00001
 2.61370    0.00001
 2.61440    0.00001
 2.61510    0.00001
 2.61570    0.00001
 2.61640    0.00001
 2.61710    0.00001
 2.61780    0.00001
 2.61850    0.00001
 2.61920    0.00001
 2.61990    0.00001
 2.62000    0.00001
 2.62050    0.00001
 2.62120    0.00001
 2.62190    0.00001
 2.62260    0.00001
 2.62330    0.00001
 2.62400    0.00001
 2.62470    0.00001
 2.62540    0.00001
 2.62610    0.00001
 2.62670    0.00001
 2.62740    0.00001
 2.62810    0.00001
 2.62880    0.00001
 2.62950    0.00001
 2.63000    0.00001
 2.63020    0.00001
 2.63090    0.00001
 2.63160    0.00001
 2.63230    0.00001
 2.63300    0.00001
 2.63370    0.00001
 2.63440    0.00001
 2.63500    0.00001
 2.63570    0.00001
 2.63640    0.00001
 2.63710    0.00001
 2.63780    0.00001
 2.63850    0.00001
 2.63920    0.00001
 2.63990    0.00001
 2.64000    0.00001
 2.64060    0.00001
 2.64130    0.00001
 2.64200    0.00001
 2.64270    0.00001
 2.64340    0.00001
 2.64410    0.00001
 2.64480    0.00001
 2.64550    0.00001
 2.64620    0.00001
 2.64690    0.00001
 2.64760    0.00001
 2.64830    0.00001
 2.64900    0.00001
 2.64970    0.00001
 2.65000    0.00001
 2.65040    0.00001
 2.65110    0.00001
 2.65180    0.00001
 2.65250    0.00001
 2.65320    0.00001
 2.65390    0.00001
 2.65460    0.00001
 2.65530    0.00001
 2.65600    0.00001
 2.65670    0.00001
 2.65750    0.00001
 2.65820    0.00001
 2.65890    0.00001
 2.65960    0.00001
 2.66000    0.00001
 2.66030    0.00001
 2.66100    0.00001
 2.66170    0.00001
 2.66240    0.00001
 2.66310    0.00001
 2.66380    0.00001
 2.66400    0.00001
 2.66450    0.00001
 2.66520    0.00001
 2.66600    0.00001
 2.66670    0.00001
 2.66740    0.00001
 2.66810    0.00001
 2.66880    0.00001
 2.66950    0.00000
 2.67000    0.00000
 2.67020    0.00000
 2.67090    0.00000
 2.67170    0.00000
 2.67240    0.00000
 2.67310    0.00000
 2.67380    0.00000
 2.67450    0.00000
 2.67520    0.00000
 2.67590    0.00000
 2.67670    0.00000
 2.67740    0.00000
 2.67810    0.00000
 2.67880    0.00000
 2.67950    0.00000
 2.68000    0.00000
 2.68020    0.00000
 2.68100    0.00000
 2.68170    0.00000
 2.68240    0.00000
 2.68310    0.00000
 2.68380    0.00000
 2.68460    0.00000
 2.68530    0.00000
 2.68600    0.00000
 2.68670    0.00000
 2.68740    0.00000
 2.68820    0.00000
 2.68890    0.00000
 2.68960    0.00000
 2.69000    0.00000
 2.69030    0.00000
 2.69110    0.00000
 2.69180    0.00000
 2.69250    0.00000
 2.69320    0.00000
 2.69400    0.00000
 2.69470    0.00000
 2.69540    0.00000
 2.69610    0.00000
 2.69690    0.00000
 2.69760    0.00000
 2.69830    0.00000
 2.69910    0.00000
 2.69980    0.00000
 2.70000    0.00000
 2.70050    0.00000
 2.70120    0.00000
 2.70200    0.00000
 2.70270    0.00000
 2.70340    0.00000
 2.70420    0.00000
 2.70490    0.00000
 2.70560    0.00000
 2.70640    0.00000
 2.70710    0.00000
 2.70780    0.00000
 2.70860    0.00000
 2.70930    0.00000
 2.71000    0.00000
 2.71080    0.00000
 2.71150    0.00000
 2.71220    0.00000
 2.71300    0.00000
 2.71370    0.00000
 2.71440    0.00000
 2.71520    0.00000
 2.71590    0.00000
 2.71670    0.00000
 2.71740    0.00000
 2.71810    0.00000
 2.71890    0.00000
 2.71960    0.00000
 2.72000    0.00000
 2.72030    0.00000
 2.72110    0.00000
 2.72180    0.00000
 2.72260    0.00000
 2.72330    0.00000
 2.72400    0.00000
 2.72410    0.00000
 2.72480    0.00000
 2.72550    0.00000
 2.72630    0.00000
 2.72700    0.00000
 2.72780    0.00000
 2.72850    0.00000
 2.72930    0.00000
 2.73000    0.00000
 2.73070    0.00000
 2.73150    0.00000
 2.73220    0.00000
 2.73300    0.00000
 2.73370    0.00000
 2.73450    0.00000
 2.73520    0.00000
 2.73600    0.00000
 2.73670    0.00000
 2.73750    0.00000
 2.73820    0.00000
 2.73900    0.00000
 2.73970    0.00000
 2.74000    0.00000
 2.74050    0.00000
 2.74120    0.00000
 2.74200    0.00000
 2.74270    0.00000
 2.74350    0.00000
 2.74420    0.00000
 2.74500    0.00000
 2.74570    0.00000
 2.74650    0.00000
 2.74730    0.00000
 2.74800    0.00000
 2.74880    0.00000
 2.74950    0.00000
 2.75000    0.00000
 2.75030    0.00000
 2.75100    0.00000
 2.75180    0.00000
 2.75250    0.00000
 2.75330    0.00000
 2.75400    0.00000
 2.75410    0.00000
 2.75480    0.00000
 2.75560    0.00000
 2.75630    0.00000
 2.75710    0.00000
 2.75790    0.00000
 2.75860    0.00000
 2.75940    0.00000
 2.76000    0.00000
 2.76010    0.00000
 2.76090    0.00000
 2.76170    0.00000
 2.76240    0.00000
 2.76320    0.00000
 2.76400    0.00000
 2.76470    0.00000
 2.76550    0.00000
 2.76630    0.00000
 2.76700    0.00000
 2.76780    0.00000
 2.76850    0.00000
 2.76930    0.00000
 2.77000    0.00000
 2.77010    0.00000
 2.77090    0.00000
 2.77160    0.00000
 2.77240    0.00000
 2.77320    0.00000
 2.77390    0.00000
 2.77470    0.00000
 2.77550    0.00000
 2.77620    0.00000
 2.77700    0.00000
 2.77780    0.00000
 2.77850    0.00000
 2.77930    0.00000
 2.78000    0.00000
 2.78010    0.00000
 2.78090    0.00000
 2.78160    0.00000
 2.78240    0.00000
 2.78320    0.00000
 2.78400    0.00000
 2.78470    0.00000
 2.78550    0.00000
 2.78630    0.00000
 2.78710    0.00000
 2.78780    0.00000
 2.78860    0.00000
 2.78940    0.00000
 2.79000    0.00000
 2.79020    0.00000
 2.79100    0.00000
 2.79170    0.00000
 2.79250    0.00000
 2.79330    0.00000
 2.79410    0.00000
 2.79490    0.00000
 2.79560    0.00000
 2.79640    0.00000
 2.79720    0.00000
 2.79800    0.00000
 2.79880    0.00000
 2.79960    0.00000
 2.80000    0.00000
 2.80030    0.00000
 2.80110    0.00000
 2.80190    0.00000
 2.80270    0.00000
 2.80350    0.00000
 2.80430    0.00000
 2.80500    0.00000
 2.80580    0.00000
 2.80660    0.00000
 2.80740    0.00000
 2.80820    0.00000
 2.80900    0.00000
 2.80980    0.00000
 2.81000    0.00000
 2.81060    0.00000
 2.81140    0.00000
 2.81210    0.00000
 2.81290    0.00000
 2.81370    0.00000
 2.81450    0.00000
 2.81500    0.00000
 2.81530    0.00000
 2.81610    0.00000
 2.81690    0.00000
 2.81770    0.00000
 2.81850    0.00000
 2.81930    0.00000
 2.82000    0.00000
 2.82010    0.00000
 2.82090    0.00000
 2.82170    0.00000
 2.82250    0.00000
 2.82330    0.00000
 2.82410    0.00000
 2.82490    0.00000
 2.82570    0.00000
 2.82650    0.00000
 2.82730    0.00000
 2.82810    0.00000
 2.82890    0.00000
 2.82970    0.00000
 2.83000    0.00000
 2.83050    0.00000
 2.83130    0.00000
 2.83210    0.00000
 2.83290    0.00000
 2.83370    0.00000
 2.83450    0.00000
 2.83530    0.00000
 2.83610    0.00000
 2.83690    0.00000
 2.83770    0.00000
 2.83850    0.00000
 2.83930    0.00000
 2.84000    0.00000
 2.84010    0.00000
 2.84090    0.00000
 2.84170    0.00000
 2.84250    0.00000
 2.84330    0.00000
 2.84410    0.00000
 2.84500    0.00000
 2.84580    0.00000
 2.84600    0.00000
 2.84660    0.00000
 2.84740    0.00000
 2.84820    0.00000
 2.84900    0.00000
 2.84980    0.00000
 2.85000    0.00000
 2.85060    0.00000
 2.85140    0.00000
 2.85230    0.00000
 2.85310    0.00000
 2.85390    0.00000
 2.85470    0.00000
 2.85550    0.00000
 2.85630    0.00000
 2.85710    0.00000
 2.85800    0.00000
 2.85880    0.00000
 2.85960    0.00000
 2.86000    0.00000
 2.86040    0.00000
 2.86120    0.00000
 2.86200    0.00000
 2.86290    0.00000
 2.86370    0.00000
 2.86450    0.00000
 2.86530    0.00000
 2.86620    0.00000
 2.86700    0.00000
 2.86780    0.00000
 2.86860    0.00000
 2.86940    0.00000
 2.87000    0.00000
 2.87030    0.00000
 2.87110    0.00000
 2.87190    0.00000
 2.87270    0.00000
 2.87360    0.00000
 2.87440    0.00000
 2.87520    0.00000
 2.87600    0.00000
 2.87690    0.00000
 2.87770    0.00000
 2.87800    0.00000
 2.87850    0.00000
 2.87940    0.00000
 2.88000    0.00000
 2.88020    0.00000
 2.88100    0.00000
 2.88180    0.00000
 2.88270    0.00000
 2.88350    0.00000
 2.88430    0.00000
 2.88520    0.00000
 2.88600    0.00000
 2.88680    0.00000
 2.88770    0.00000
 2.88850    0.00000
 2.88930    0.00000
 2.89000    0.00000
 2.89020    0.00000
 2.89100    0.00000
 2.89180    0.00000
 2.89270    0.00000
 2.89350    0.00000
 2.89440    0.00000
 2.89520    0.00000
 2.89600    0.00000
 2.89690    0.00000
 2.89770    0.00000
 2.89860    0.00000
 2.89940    0.00000
 2.90000    0.00000
 2.90020    0.00000
 2.90110    0.00000
 2.90190    0.00000
 2.90280    0.00000
 2.90360    0.00000
 2.90440    0.00000
 2.90530    0.00000
 2.90610    0.00000
 2.90700    0.00000
 2.90780    0.00000
 2.90870    0.00000
 2.90950    0.00000
 2.91000    0.00000
 2.91040    0.00000
 2.91120    0.00000
 2.91210    0.00000
 2.91290    0.00000
 2.91380    0.00000
 2.91460    0.00000
 2.91550    0.00000
 2.91630    0.00000
 2.91720    0.00000
 2.91800    0.00000
 2.91890    0.00000
 2.91970    0.00000
 2.92000    0.00000
 2.92060    0.00000
 2.92140    0.00000
 2.92230    0.00000
 2.92310    0.00000
 2.92400    0.00000
 2.92480    0.00000
 2.92570    0.00000
 2.92650    0.00000
 2.92740    0.00000
 2.92830    0.00000
 2.92910    0.00000
 2.93000    0.00000
 2.93080    0.00000
 2.93170    0.00000
 2.93260    0.00000
 2.93340    0.00000
 2.93430    0.00000
 2.93510    0.00000
 2.93600    0.00000
 2.93690    0.00000
 2.93770    0.00000
 2.93860    0.00000
 2.93940    0.00000
 2.94000    0.00000
 2.94030    0.00000
 2.94120    0.00000
 2.94200    0.00000
 2.94290    0.00000
 2.94380    0.00000
 2.94460    0.00000
 2.94550    0.00000
 2.94640    0.00000
 2.94720    0.00000
 2.94810    0.00000
 2.94900    0.00000
 2.94990    0.00000
 2.95000    0.00000
 2.95070    0.00000
 2.95160    0.00000
 2.95250    0.00000
 2.95330    0.00000
 2.95420    0.00000
 2.95510    0.00000
 2.95600    0.00000
 2.95680    0.00000
 2.95770    0.00000
 2.95860    0.00000
 2.95950    0.00000
 2.96000    0.00000
 2.96030    0.00000
 2.96120    0.00000
 2.96210    0.00000
 2.96300    0.00000
 2.96380    0.00000
 2.96470    0.00000
 2.96560    0.00000
 2.96650    0.00000
 2.96740    0.00000
 2.96820    0.00000
 2.96910    0.00000
 2.97000    0.00000
 2.97090    0.00000
 2.97180    0.00000
 2.97270    0.00000
 2.97350    0.00000
 2.97440    0.00000
 2.97500    0.00000
 2.97530    0.00000
 2.97620    0.00000
 2.97710    0.00000
 2.97800    0.00000
 2.97890    0.00000
 2.97970    0.00000
 2.98000    0.00000
 2.98060    0.00000
 2.98150    0.00000
 2.98240    0.00000
 2.98330    0.00000
 2.98420    0.00000
 2.98510    0.00000
 2.98600    0.00000
 2.98690    0.00000
 2.98780    0.00000
 2.98860    0.00000
 2.98950    0.00000
 2.99000    0.00000
 2.99040    0.00000
 2.99130    0.00000
 2.99220    0.00000
 2.99310    0.00000
 2.99400    0.00000
 2.99490    0.00000
 2.99580    0.00000
 2.99670    0.00000
 2.99760    0.00000
 2.99850    0.00000
 2.99940    0.00000
 3.00000    0.00000
 3.00030    0.00000
 3.00120    0.00000
 3.00210    0.00000
 3.00300    0.00000
 3.00390    0.00000
 3.00480    0.00000
 3.00570    0.00000
 3.00660    0.00000
 3.00750    0.00000
 3.00800    0.00000
 3.00840    0.00000
 3.00930    0.00000
 3.01000    0.00000
 3.01020    0.00000
 3.01110    0.00000
 3.01200    0.00000
 3.01300    0.00000
 3.01390    0.00000
 3.01480    0.00000
 3.01570    0.00000
 3.01660    0.00000
 3.01750    0.00000
 3.01840    0.00000
 3.01930    0.00000
 3.02000    0.00000
 3.02020    0.00000
 3.02110    0.00000
 3.02210    0.00000
 3.02300    0.00000
 3.02390    0.00000
 3.02480    0.00000
 3.02570    0.00000
 3.02660    0.00000
 3.02760    0.00000
 3.02850    0.00000
 3.02940    0.00000
 3.03000    0.00000
 3.03030    0.00000
 3.03120    0.00000
 3.03210    0.00000
 3.03310    0.00000
 3.03400    0.00000
 3.03490    0.00000
 3.03580    0.00000
 3.03670    0.00000
 3.03770    0.00000
 3.03860    0.00000
 3.03950    0.00000
 3.04000    0.00000
 3.04040    0.00000
 3.04100    0.00000
 3.04140    0.00000
 3.04230    0.00000
 3.04320    0.00000
 3.04410    0.00000
 3.04510    0.00000
 3.04600    0.00000
 3.04690    0.00000
 3.04790    0.00000
 3.04880    0.00000
 3.04970    0.00000
 3.05000    0.00000
 3.05060    0.00000
 3.05160    0.00000
 3.05250    0.00000
 3.05340    0.00000
 3.05440    0.00000
 3.05530    0.00000
 3.05620    0.00000
 3.05720    0.00000
 3.05810    0.00000
 3.05900    0.00000
 3.06000    0.00000
 3.06090    0.00000
 3.06180    0.00000
 3.06280    0.00000
 3.06370    0.00000
 3.06470    0.00000
 3.06560    0.00000
 3.06650    0.00000
 3.06750    0.00000
 3.06840    0.00000
 3.06940    0.00000
 3.07000    0.00000
 3.07030    0.00000
 3.07130    0.00000
 3.07220    0.00000
 3.07310    0.00000
 3.07410    0.00000
 3.07500    0.00000
 3.07600    0.00000
 3.07690    0.00000
 3.07790    0.00000
 3.07880    0.00000
 3.07980    0.00000
 3.08000    0.00000
 3.08070    0.00000
 3.08170    0.00000
 3.08260    0.00000
 3.08360    0.00000
 3.08450    0.00000
 3.08550    0.00000
 3.08640    0.00000
 3.08740    0.00000
 3.08830    0.00000
 3.08930    0.00000
 3.09000    0.00000
 3.09020    0.00000
 3.09120    0.00000
 3.09210    0.00000
 3.09310    0.00000
 3.09410    0.00000
 3.09500    0.00000
 3.09600    0.00000
 3.09690    0.00000
 3.09790    0.00000
 3.09890    0.00000
 3.09980    0.00000
 3.10000    0.00000
 3.10080    0.00000
 3.10170    0.00000
 3.10270    0.00000
 3.10370    0.00000
 3.10460    0.00000
 3.10560    0.00000
 3.10660    0.00000
 3.10750    0.00000
 3.10850    0.00000
 3.10900    0.00000
 3.10950    0.00000
 3.11000    0.00000
 3.11040    0.00000
 3.11140    0.00000
 3.11240    0.00000
 3.11330    0.00000
 3.11430    0.00000
 3.11530    0.00000
 3.11620    0.00000
 3.11720    0.00000
 3.11820    0.00000
 3.11920    0.00000
 3.12000    0.00000
 3.12010    0.00000
 3.12110    0.00000
 3.12210    0.00000
 3.12300    0.00000
 3.12400    0.00000
 3.12500    0.00000
 3.12600    0.00000
 3.12700    0.00000
 3.12790    0.00000
 3.12890    0.00000
 3.12990    0.00000
 3.13000    0.00000
 3.13090    0.00000
 3.13190    0.00000
 3.13280    0.00000
 3.13380    0.00000
 3.13480    0.00000
 3.13580    0.00000
 3.13680    0.00000
 3.13770    0.00000
 3.13870    0.00000
 3.13970    0.00000
 3.14000    0.00000
 3.14070    0.00000
 3.14170    0.00000
 3.14270    0.00000
 3.14300    0.00000
 3.14370    0.00000
 3.14470    0.00000
 3.14560    0.00000
 3.14660    0.00000
 3.14760    0.00000
 3.14860    0.00000
 3.14960    0.00000
 3.15000    0.00000
 3.15060    0.00000
 3.15160    0.00000
 3.15260    0.00000
 3.15360    0.00000
 3.15460    0.00000
 3.15560    0.00000
 3.15660    0.00000
 3.15760    0.00000
 3.15860    0.00000
 3.15960    0.00000
 3.16000    0.00000
 3.16060    0.00000
 3.16160    0.00000
 3.16260    0.00000
 3.16360    0.00000
 3.16460    0.00000
 3.16560    0.00000
 3.16660    0.00000
 3.16760    0.00000
 3.16860    0.00000
 3.16960    0.00000
 3.17000    0.00000
 3.17060    0.00000
 3.17160    0.00000
 3.17260    0.00000
 3.17360    0.00000
 3.17460    0.00000
 3.17560    0.00000
 3.17660    0.00000
 3.17760    0.00000
 3.17800    0.00000
 3.17860    0.00000
 3.17970    0.00000
 3.18000    0.00000
 3.18070    0.00000
 3.18170    0.00000
 3.18270    0.00000
 3.18370    0.00000
 3.18470    0.00000
 3.18570    0.00000
 3.18670    0.00000
 3.18780    0.00000
 3.18880    0.00000
 3.18980    0.00000
 3.19000    0.00000
 3.19080    0.00000
 3.19180    0.00000
 3.19280    0.00000
 3.19390    0.00000
 3.19490    0.00000
 3.19590    0.00000
 3.19690    0.00000
 3.19800    0.00000
 3.19900    0.00000
 3.20000    0.00000
 3.20100    0.00000
 3.20200    0.00000
 3.20310    0.00000
 3.20410    0.00000
 3.20510    0.00000
 3.20620    0.00000
 3.20720    0.00000
 3.20820    0.00000
 3.20920    0.00000
 3.21000    0.00000
 3.21030    0.00000
 3.21130    0.00000
 3.21230    0.00000
 3.21340    0.00000
 3.21400    0.00000
 3.21440    0.00000
 3.21540    0.00000
 3.21650    0.00000
 3.21750    0.00000
 3.21850    0.00000
 3.21960    0.00000
 3.22000    0.00000
 3.22060    0.00000
 3.22160    0.00000
 3.22270    0.00000
 3.22370    0.00000
 3.22480    0.00000
 3.22580    0.00000
 3.22680    0.00000
 3.22790    0.00000
 3.22890    0.00000
 3.23000    0.00000
 3.23100    0.00000
 3.23210    0.00000
 3.23310    0.00000
 3.23420    0.00000
 3.23520    0.00000
 3.23620    0.00000
 3.23730    0.00000
 3.23830    0.00000
 3.23940    0.00000
 3.24000    0.00000
 3.24040    0.00000
 3.24150    0.00000
 3.24250    0.00000
 3.24360    0.00000
 3.24460    0.00000
 3.24570    0.00000
 3.24680    0.00000
 3.24780    0.00000
 3.24890    0.00000
 3.24900    0.00000
 3.24990    0.00000
 3.25000    0.00000
 3.25100    0.00000
 3.25200    0.00000
 3.25310    0.00000
 3.25410    0.00000
 3.25520    0.00000
 3.25630    0.00000
 3.25730    0.00000
 3.25840    0.00000
 3.25950    0.00000
 3.26000    0.00000
 3.26050    0.00000
 3.26160    0.00000
 3.26260    0.00000
 3.26370    0.00000
 3.26480    0.00000
 3.26580    0.00000
 3.26690    0.00000
 3.26800    0.00000
 3.26900    0.00000
 3.27000    0.00000
 3.27010    0.00000
 3.27120    0.00000
 3.27230    0.00000
 3.27330    0.00000
 3.27440    0.00000
 3.27550    0.00000
 3.27650    0.00000
 3.27760    0.00000
 3.27870    0.00000
 3.27980    0.00000
 3.28000    0.00000
 3.28080    0.00000
 3.28190    0.00000
 3.28300    0.00000
 3.28410    0.00000
 3.28500    0.00000
 3.28520    0.00000
 3.28620    0.00000
 3.28730    0.00000
 3.28840    0.00000
 3.28950    0.00000
 3.29000    0.00000
 3.29060    0.00000
 3.29160    0.00000
 3.29270    0.00000
 3.29380    0.00000
 3.29490    0.00000
 3.29600    0.00000
 3.29710    0.00000
 3.29820    0.00000
 3.29920    0.00000
 3.30000    0.00000
 3.30030    0.00000
 3.30140    0.00000
 3.30250    0.00000
 3.30360    0.00000
 3.30470    0.00000
 3.30580    0.00000
 3.30690    0.00000
 3.30800    0.00000
 3.30910    0.00000
 3.31000    0.00000
 3.31020    0.00000
 3.31130    0.00000
 3.31240    0.00000
 3.31350    0.00000
 3.31460    0.00000
 3.31560    0.00000
 3.31670    0.00000
 3.31790    0.00000
 3.31900    0.00000
 3.32000    0.00000
 3.32010    0.00000
 3.32120    0.00000
 3.32200    0.00000
 3.32230    0.00000
 3.32340    0.00000
 3.32450    0.00000
 3.32560    0.00000
 3.32670    0.00000
 3.32780    0.00000
 3.32890    0.00000
 3.33000    0.00000
 3.33110    0.00000
 3.33220    0.00000
 3.33330    0.00000
 3.33440    0.00000
 3.33560    0.00000
 3.33670    0.00000
 3.33780    0.00000
 3.33890    0.00000
 3.34000    0.00000
 3.34110    0.00000
 3.34220    0.00000
 3.34340    0.00000
 3.34450    0.00000
 3.34560    0.00000
 3.34670    0.00000
 3.34780    0.00000
 3.34900    0.00000
 3.35000    0.00000
 3.35010    0.00000
 3.35120    0.00000
 3.35230    0.00000
 3.35350    0.00000
 3.35460    0.00000
 3.35570    0.00000
 3.35680    0.00000
 3.35800    0.00000
 3.35900    0.00000
 3.35910    0.00000
 3.36000    0.00000
 3.36020    0.00000
 3.36130    0.00000
 3.36250    0.00000
 3.36360    0.00000
 3.36470    0.00000
 3.36590    0.00000
 3.36700    0.00000
 3.36810    0.00000
 3.36930    0.00000
 3.37000    0.00000
 3.37040    0.00000
 3.37150    0.00000
 3.37270    0.00000
 3.37380    0.00000
 3.37500    0.00000
 3.37610    0.00000
 3.37720    0.00000
 3.37840    0.00000
 3.37950    0.00000
 3.38000    0.00000
 3.38070    0.00000
 3.38180    0.00000
 3.38290    0.00000
 3.38410    0.00000
 3.38520    0.00000
 3.38640    0.00000
 3.38750    0.00000
 3.38870    0.00000
 3.38980    0.00000
 3.39000    0.00000
 3.39100    0.00000
 3.39210    0.00000
 3.39330    0.00000
 3.39440    0.00000
 3.39560    0.00000
 3.39600    0.00000
 3.39670    0.00000
 3.39790    0.00000
 3.39900    0.00000
 3.40000    0.00000
 3.40020    0.00000
 3.40140    0.00000
 3.40250    0.00000
 3.40370    0.00000
 3.40480    0.00000
 3.40600    0.00000
 3.40720    0.00000
 3.40830    0.00000
 3.40950    0.00000
 3.41000    0.00000
 3.41060    0.00000
 3.41180    0.00000
 3.41300    0.00000
 3.41410    0.00000
 3.41530    0.00000
 3.41650    0.00000
 3.41760    0.00000
 3.41880    0.00000
 3.42000    0.00000
 3.42110    0.00000
 3.42230    0.00000
 3.42350    0.00000
 3.42470    0.00000
 3.42580    0.00000
 3.42700    0.00000
 3.42820    0.00000
 3.42940    0.00000
 3.43000    0.00000
 3.43050    0.00000
 3.43170    0.00000
 3.43290    0.00000
 3.43300    0.00000
 3.43410    0.00000
 3.43520    0.00000
 3.43640    0.00000
 3.43760    0.00000
 3.43880    0.00000
 3.44000    0.00000
 3.44120    0.00000
 3.44230    0.00000
 3.44350    0.00000
 3.44470    0.00000
 3.44590    0.00000
 3.44710    0.00000
 3.44830    0.00000
 3.44950    0.00000
 3.45000    0.00000
 3.45070    0.00000
 3.45180    0.00000
 3.45300    0.00000
 3.45420    0.00000
 3.45540    0.00000
 3.45660    0.00000
 3.45780    0.00000
 3.45900    0.00000
 3.46000    0.00000
 3.46020    0.00000
 3.46140    0.00000
 3.46260    0.00000
 3.46380    0.00000
 3.46500    0.00000
 3.46620    0.00000
 3.46740    0.00000
 3.46860    0.00000
 3.46980    0.00000
 3.47000    0.00000
 3.47100    0.00000
 3.47200    0.00000
 3.47220    0.00000
 3.47340    0.00000
 3.47460    0.00000
 3.47580    0.00000
 3.47710    0.00000
 3.47830    0.00000
 3.47950    0.00000
 3.48000    0.00000
 3.48070    0.00000
 3.48190    0.00000
 3.48310    0.00000
 3.48430    0.00000
 3.48550    0.00000
 3.48680    0.00000
 3.48800    0.00000
 3.48920    0.00000
 3.49000    0.00000
 3.49040    0.00000
 3.49160    0.00000
 3.49280    0.00000
 3.49410    0.00000
 3.49530    0.00000
 3.49650    0.00000
 3.49770    0.00000
 3.49900    0.00000
 3.50000    0.00000
 3.50020    0.00000
 3.50140    0.00000
 3.50260    0.00000
 3.50390    0.00000
 3.50510    0.00000
 3.50630    0.00000
 3.50750    0.00000
 3.50880    0.00000
 3.51000    0.00000
 3.51120    0.00000
 3.51250    0.00000
 3.51370    0.00000
 3.51490    0.00000
 3.51620    0.00000
 3.51740    0.00000
 3.51860    0.00000
 3.51990    0.00000
 3.52000    0.00000
 3.52110    0.00000
 3.52240    0.00000
 3.52360    0.00000
 3.52490    0.00000
 3.52610    0.00000
 3.52730    0.00000
 3.52860    0.00000
 3.52980    0.00000
 3.53000    0.00000
 3.53110    0.00000
 3.53230    0.00000
 3.53360    0.00000
 3.53480    0.00000
 3.53610    0.00000
 3.53730    0.00000
 3.53860    0.00000
 3.53980    0.00000
 3.54000    0.00000
 3.54110    0.00000
 3.54230    0.00000
 3.54360    0.00000
 3.54480    0.00000
 3.54610    0.00000
 3.54740    0.00000
 3.54860    0.00000
 3.54900    0.00000
 3.54990    0.00000
 3.55000    0.00000
 3.55110    0.00000
 3.55240    0.00000
 3.55370    0.00000
 3.55490    0.00000
 3.55620    0.00000
 3.55750    0.00000
 3.55870    0.00000
 3.56000    0.00000
 3.56130    0.00000
 3.56250    0.00000
 3.56380    0.00000
 3.56510    0.00000
 3.56630    0.00000
 3.56760    0.00000
 3.56890    0.00000
 3.57000    0.00000
 3.57020    0.00000
 3.57140    0.00000
 3.57270    0.00000
 3.57400    0.00000
 3.57530    0.00000
 3.57650    0.00000
 3.57780    0.00000
 3.57910    0.00000
 3.58000    0.00000
 3.58040    0.00000
 3.58170    0.00000
 3.58290    0.00000
 3.58420    0.00000
 3.58550    0.00000
 3.58680    0.00000
 3.58800    0.00000
 3.58810    0.00000
 3.58940    0.00000
 3.59000    0.00000
 3.59070    0.00000
 3.59200    0.00000
 3.59320    0.00000
 3.59450    0.00000
 3.59580    0.00000
 3.59710    0.00000
 3.59840    0.00000
 3.59970    0.00000
 3.60000    0.00000
 3.60100    0.00000
 3.60230    0.00000
 3.60360    0.00000
 3.60490    0.00000
 3.60620    0.00000
 3.60750    0.00000
 3.60880    0.00000
 3.61000    0.00000
 3.61010    0.00000
 3.61140    0.00000
 3.61270    0.00000
 3.61400    0.00000
 3.61530    0.00000
 3.61660    0.00000
 3.61790    0.00000
 3.61930    0.00000
 3.62000    0.00000
 3.62060    0.00000
 3.62190    0.00000
 3.62320    0.00000
 3.62450    0.00000
 3.62580    0.00000
 3.62710    0.00000
 3.62800    0.00000
 3.62840    0.00000
 3.62980    0.00000
 3.63000    0.00000
 3.63110    0.00000
 3.63240    0.00000
 3.63370    0.00000
 3.63500    0.00000
 3.63640    0.00000
 3.63770    0.00000
 3.63900    0.00000
 3.64000    0.00000
 3.64030    0.00000
 3.64170    0.00000
 3.64300    0.00000
 3.64430    0.00000
 3.64560    0.00000
 3.64700    0.00000
 3.64830    0.00000
 3.64960    0.00000
 3.65000    0.00000
 3.65100    0.00000
 3.65230    0.00000
 3.65360    0.00000
 3.65500    0.00000
 3.65630    0.00000
 3.65760    0.00000
 3.65900    0.00000
 3.66000    0.00000
 3.66030    0.00000
 3.66170    0.00000
 3.66300    0.00000
 3.66430    0.00000
 3.66570    0.00000
 3.66700    0.00000
 3.66800    0.00000
 3.66840    0.00000
 3.66970    0.00000
 3.67000    0.00000
 3.67110    0.00000
 3.67240    0.00000
 3.67380    0.00000
 3.67510    0.00000
 3.67650    0.00000
 3.67780    0.00000
 3.67920    0.00000
 3.68000    0.00000
 3.68050    0.00000
 3.68190    0.00000
 3.68320    0.00000
 3.68460    0.00000
 3.68600    0.00000
 3.68730    0.00000
 3.68870    0.00000
 3.69000    0.00000
 3.69140    0.00000
 3.69280    0.00000
 3.69410    0.00000
 3.69550    0.00000
 3.69690    0.00000
 3.69820    0.00000
 3.69960    0.00000
 3.70000    0.00000
 3.70100    0.00000
 3.70230    0.00000
 3.70370    0.00000
 3.70510    0.00000
 3.70640    0.00000
 3.70780    0.00000
 3.70900    0.00000
 3.70920    0.00000
 3.71000    0.00000
 3.71060    0.00000
 3.71200    0.00000
 3.71330    0.00000
 3.71470    0.00000
 3.71610    0.00000
 3.71750    0.00000
 3.71890    0.00000
 3.72000    0.00000
 3.72020    0.00000
 3.72160    0.00000
 3.72300    0.00000
 3.72440    0.00000
 3.72580    0.00000
 3.72720    0.00000
 3.72860    0.00000
 3.73000    0.00000
 3.73130    0.00000
 3.73270    0.00000
 3.73410    0.00000
 3.73550    0.00000
 3.73690    0.00000
 3.73830    0.00000
 3.73970    0.00000
 3.74000    0.00000
 3.74110    0.00000
 3.74250    0.00000
 3.74390    0.00000
 3.74530    0.00000
 3.74670    0.00000
 3.74810    0.00000
 3.74950    0.00000
 3.75000    0.00000
 3.75090    0.00000
 3.75230    0.00000
 3.75380    0.00000
 3.75520    0.00000
 3.75660    0.00000
 3.75800    0.00000
 3.75940    0.00000
 3.76000    0.00000
 3.76080    0.00000
 3.76220    0.00000
 3.76360    0.00000
 3.76510    0.00000
 3.76650    0.00000
 3.76790    0.00000
 3.76930    0.00000
 3.77000    0.00000
 3.77070    0.00000
 3.77220    0.00000
 3.77360    0.00000
 3.77500    0.00000
 3.77640    0.00000
 3.77790    0.00000
 3.77930    0.00000
 3.78000    0.00000
 3.78070    0.00000
 3.78210    0.00000
 3.78360    0.00000
 3.78500    0.00000
 3.78640    0.00000
 3.78790    0.00000
 3.78930    0.00000
 3.79000    0.00000
 3.79080    0.00000
 3.79200    0.00000
 3.79220    0.00000
 3.79360    0.00000
 3.79510    0.00000
 3.79650    0.00000
 3.79790    0.00000
 3.79940    0.00000
 3.80000    0.00000
 3.80080    0.00000
 3.80230    0.00000
 3.80370    0.00000
 3.80520    0.00000
 3.80660    0.00000
 3.80810    0.00000
 3.80950    0.00000
 3.81000    0.00000
 3.81100    0.00000
 3.81240    0.00000
 3.81390    0.00000
 3.81530    0.00000
 3.81680    0.00000
 3.81830    0.00000
 3.81970    0.00000
 3.82000    0.00000
 3.82120    0.00000
 3.82260    0.00000
 3.82410    0.00000
 3.82560    0.00000
 3.82700    0.00000
 3.82850    0.00000
 3.83000    0.00000
 3.83140    0.00000
 3.83290    0.00000
 3.83400    0.00000
 3.83440    0.00000
 3.83580    0.00000
 3.83730    0.00000
 3.83880    0.00000
 3.84000    0.00000
 3.84020    0.00000
 3.84170    0.00000
 3.84320    0.00000
 3.84470    0.00000
 3.84620    0.00000
 3.84760    0.00000
 3.84910    0.00000
 3.85000    0.00000
 3.85060    0.00000
 3.85210    0.00000
 3.85360    0.00000
 3.85510    0.00000
 3.85650    0.00000
 3.85800    0.00000
 3.85950    0.00000
 3.86000    0.00000
 3.86100    0.00000
 3.86250    0.00000
 3.86400    0.00000
 3.86550    0.00000
 3.86700    0.00000
 3.86850    0.00000
 3.87000    0.00000
 3.87150    0.00000
 3.87300    0.00000
 3.87450    0.00000
 3.87600    0.00000
 3.87750    0.00000
 3.87900    0.00000
 3.88000    0.00000
 3.88050    0.00000
 3.88200    0.00000
 3.88350    0.00000
 3.88500    0.00000
 3.88650    0.00000
 3.88800    0.00000
 3.88950    0.00000
 3.89000    0.00000
 3.89110    0.00000
 3.89260    0.00000
 3.89410    0.00000
 3.89560    0.00000
 3.89710    0.00000
 3.89860    0.00000
 3.90000    0.00000
 3.90020    0.00000
 3.90170    0.00000
 3.90320    0.00000
 3.90470    0.00000
 3.90630    0.00000
 3.90780    0.00000
 3.90930    0.00000
 3.91000    0.00000
 3.91080    0.00000
 3.91240    0.00000
 3.91390    0.00000
 3.91540    0.00000
 3.91700    0.00000
 3.91850    0.00000
 3.91900    0.00000
 3.92000    0.00000
 3.92160    0.00000
 3.92310    0.00000
 3.92460    0.00000
 3.92620    0.00000
 3.92770    0.00000
 3.92930    0.00000
 3.93000    0.00000
 3.93080    0.00000
 3.93240    0.00000
 3.93390    0.00000
 3.93550    0.00000
 3.93700    0.00000
 3.93860    0.00000
 3.94000    0.00000
 3.94010    0.00000
 3.94170    0.00000
 3.94320    0.00000
 3.94480    0.00000
 3.94630    0.00000
 3.94790    0.00000
 3.94940    0.00000
 3.95000    0.00000
 3.95100    0.00000
 3.95260    0.00000
 3.95410    0.00000
 3.95570    0.00000
 3.95730    0.00000
 3.95880    0.00000
 3.96000    0.00000
 3.96040    0.00000
 3.96200    0.00000
 3.96300    0.00000
 3.96350    0.00000
 3.96510    0.00000
 3.96670    0.00000
 3.96830    0.00000
 3.96980    0.00000
 3.97000    0.00000
 3.97140    0.00000
 3.97300    0.00000
 3.97460    0.00000
 3.97610    0.00000
 3.97770    0.00000
 3.97930    0.00000
 3.98000    0.00000
 3.98090    0.00000
 3.98250    0.00000
 3.98410    0.00000
 3.98570    0.00000
 3.98720    0.00000
 3.98880    0.00000
 3.99000    0.00000
 3.99040    0.00000
 3.99200    0.00000
 3.99360    0.00000
 3.99520    0.00000
 3.99680    0.00000
 3.99840    0.00000
 4.00000    0.00000
 4.00160    0.00000
 4.00320    0.00000
 4.00480    0.00000
 4.00640    0.00000
 4.00700    0.00000
 4.00800    0.00000
 4.00960    0.00000
 4.01000    0.00000
 4.01120    0.00000
 4.01280    0.00000
 4.01450    0.00000
 4.01610    0.00000
 4.01770    0.00000
 4.01930    0.00000
 4.02000    0.00000
 4.02090    0.00000
 4.02250    0.00000
 4.02410    0.00000
 4.02580    0.00000
 4.02740    0.00000
 4.02900    0.00000
 4.03000    0.00000
 4.03060    0.00000
 4.03230    0.00000
 4.03390    0.00000
 4.03550    0.00000
 4.03710    0.00000
 4.03880    0.00000
 4.04000    0.00000
 4.04040    0.00000
 4.04200    0.00000
 4.04370    0.00000
 4.04530    0.00000
 4.04690    0.00000
 4.04860    0.00000
 4.05000    0.00000
 4.05020    0.00000
 4.05100    0.00000
 4.05190    0.00000
 4.05350    0.00000
 4.05520    0.00000
 4.05680    0.00000
 4.05840    0.00000
 4.06000    0.00000
 4.06010    0.00000
 4.06170    0.00000
 4.06340    0.00000
 4.06500    0.00000
 4.06670    0.00000
 4.06830    0.00000
 4.07000    0.00000
 4.07170    0.00000
 4.07330    0.00000
 4.07500    0.00000
 4.07660    0.00000
 4.07830    0.00000
 4.08000    0.00000
 4.08160    0.00000
 4.08330    0.00000
 4.08500    0.00000
 4.08660    0.00000
 4.08830    0.00000
 4.09000    0.00000
 4.09170    0.00000
 4.09330    0.00000
 4.09500    0.00000
 4.09600    0.00000
 4.09670    0.00000
 4.09840    0.00000
 4.10000    0.00000
 4.10170    0.00000
 4.10340    0.00000
 4.10510    0.00000
 4.10680    0.00000
 4.10850    0.00000
 4.11000    0.00000
 4.11020    0.00000
 4.11180    0.00000
 4.11350    0.00000
 4.11520    0.00000
 4.11690    0.00000
 4.11860    0.00000
 4.12000    0.00000
 4.12030    0.00000
 4.12200    0.00000
 4.12370    0.00000
 4.12540    0.00000
 4.12710    0.00000
 4.12880    0.00000
 4.13000    0.00000
 4.13050    0.00000
 4.13220    0.00000
 4.13390    0.00000
 4.13560    0.00000
 4.13740    0.00000
 4.13910    0.00000
 4.14000    0.00000
 4.14080    0.00000
 4.14200    0.00000
 4.14250    0.00000
 4.14420    0.00000
 4.14590    0.00000
 4.14770    0.00000
 4.14940    0.00000
 4.15000    0.00000
 4.15110    0.00000
 4.15280    0.00000
 4.15450    0.00000
 4.15630    0.00000
 4.15800    0.00000
 4.15970    0.00000
 4.16000    0.00000
 4.16150    0.00000
 4.16320    0.00000
 4.16490    0.00000
 4.16670    0.00000
 4.16840    0.00000
 4.17000    0.00000
 4.17010    0.00000
 4.17190    0.00000
 4.17360    0.00000
 4.17540    0.00000
 4.17710    0.00000
 4.17890    0.00000
 4.18000    0.00000
 4.18060    0.00000
 4.18240    0.00000
 4.18410    0.00000
 4.18590    0.00000
 4.18700    0.00000
 4.18760    0.00000
 4.18940    0.00000
 4.19000    0.00000
 4.19110    0.00000
 4.19290    0.00000
 4.19460    0.00000
 4.19640    0.00000
 4.19820    0.00000
 4.19990    0.00000
 4.20000    0.00000
 4.20170    0.00000
 4.20340    0.00000
 4.20520    0.00000
 4.20700    0.00000
 4.20880    0.00000
 4.21000    0.00000
 4.21050    0.00000
 4.21230    0.00000
 4.21410    0.00000
 4.21590    0.00000
 4.21760    0.00000
 4.21940    0.00000
 4.22000    0.00000
 4.22120    0.00000
 4.22300    0.00000
 4.22480    0.00000
 4.22650    0.00000
 4.22830    0.00000
 4.23000    0.00000
 4.23010    0.00000
 4.23190    0.00000
 4.23370    0.00000
 4.23400    0.00000
 4.23550    0.00000
 4.23730    0.00000
 4.23910    0.00000
 4.24000    0.00000
 4.24090    0.00000
 4.24270    0.00000
 4.24450    0.00000
 4.24630    0.00000
 4.24810    0.00000
 4.24990    0.00000
 4.25000    0.00000
 4.25170    0.00000
 4.25350    0.00000
 4.25530    0.00000
 4.25710    0.00000
 4.25890    0.00000
 4.26000    0.00000
 4.26080    0.00000
 4.26260    0.00000
 4.26440    0.00000
 4.26620    0.00000
 4.26800    0.00000
 4.26990    0.00000
 4.27000    0.00000
 4.27170    0.00000
 4.27350    0.00000
 4.27530    0.00000
 4.27720    0.00000
 4.27900    0.00000
 4.28000    0.00000
 4.28080    0.00000
 4.28100    0.00000
 4.28270    0.00000
 4.28450    0.00000
 4.28630    0.00000
 4.28820    0.00000
 4.29000    0.00000
 4.29180    0.00000
 4.29370    0.00000
 4.29550    0.00000
 4.29740    0.00000
 4.29920    0.00000
 4.30000    0.00000
 4.30110    0.00000
 4.30290    0.00000
 4.30480    0.00000
 4.30660    0.00000
 4.30850    0.00000
 4.31000    0.00000
 4.31030    0.00000
 4.31220    0.00000
 4.31410    0.00000
 4.31590    0.00000
 4.31780    0.00000
 4.31970    0.00000
 4.32000    0.00000
 4.32150    0.00000
 4.32340    0.00000
 4.32530    0.00000
 4.32710    0.00000
 4.32800    0.00000
 4.32900    0.00000
 4.33000    0.00000
 4.33090    0.00000
 4.33280    0.00000
 4.33460    0.00000
 4.33650    0.00000
 4.33840    0.00000
 4.34000    0.00000
 4.34030    0.00000
 4.34220    0.00000
 4.34400    0.00000
 4.34590    0.00000
 4.34780    0.00000
 4.34970    0.00000
 4.35000    0.00000
 4.35160    0.00000
 4.35350    0.00000
 4.35540    0.00000
 4.35730    0.00000
 4.35920    0.00000
 4.36000    0.00000
 4.36110    0.00000
 4.36300    0.00000
 4.36490    0.00000
 4.36680    0.00000
 4.36870    0.00000
 4.37000    0.00000
 4.37060    0.00000
 4.37250    0.00000
 4.37450    0.00000
 4.37600    0.00000
 4.37640    0.00000
 4.37830    0.00000
 4.38000    0.00000
 4.38020    0.00000
 4.38210    0.00000
 4.38400    0.00000
 4.38600    0.00000
 4.38790    0.00000
 4.38980    0.00000
 4.39000    0.00000
 4.39170    0.00000
 4.39370    0.00000
 4.39560    0.00000
 4.39750    0.00000
 4.39950    0.00000
 4.40000    0.00000
 4.40140    0.00000
 4.40330    0.00000
 4.40530    0.00000
 4.40720    0.00000
 4.40920    0.00000
 4.41000    0.00000
 4.41110    0.00000
 4.41310    0.00000
 4.41500    0.00000
 4.41700    0.00000
 4.41890    0.00000
 4.42000    0.00000
 4.42090    0.00000
 4.42280    0.00000
 4.42480    0.00000
 4.42500    0.00000
 4.42670    0.00000
 4.42870    0.00000
 4.43000    0.00000
 4.43070    0.00000
 4.43260    0.00000
 4.43460    0.00000
 4.43660    0.00000
 4.43850    0.00000
 4.44000    0.00000
 4.44050    0.00000
 4.44250    0.00000
 4.44440    0.00000
 4.44640    0.00000
 4.44840    0.00000
 4.45000    0.00000
 4.45040    0.00000
 4.45240    0.00000
 4.45430    0.00000
 4.45630    0.00000
 4.45830    0.00000
 4.46000    0.00000
 4.46030    0.00000
 4.46230    0.00000
 4.46430    0.00000
 4.46630    0.00000
 4.46830    0.00000
 4.47000    0.00000
 4.47030    0.00000
 4.47230    0.00000
 4.47400    0.00000
 4.47430    0.00000
 4.47630    0.00000
 4.47830    0.00000
 4.48000    0.00000
 4.48030    0.00000
 4.48230    0.00000
 4.48430    0.00000
 4.48630    0.00000
 4.48830    0.00000
 4.49000    0.00000
 4.49030    0.00000
 4.49240    0.00000
 4.49440    0.00000
 4.49640    0.00000
 4.49840    0.00000
 4.50000    0.00000
 4.50050    0.00000
 4.50250    0.00000
 4.50450    0.00000
 4.50650    0.00000
 4.50860    0.00000
 4.51000    0.00000
 4.51060    0.00000
 4.51260    0.00000
 4.51470    0.00000
 4.51670    0.00000
 4.51880    0.00000
 4.52000    0.00000
 4.52080    0.00000
 4.52280    0.00000
 4.52400    0.00000
 4.52490    0.00000
 4.52690    0.00000
 4.52900    0.00000
 4.53000    0.00000
 4.53100    0.00000
 4.53310    0.00000
 4.53510    0.00000
 4.53720    0.00000
 4.53930    0.00000
 4.54000    0.00000
 4.54130    0.00000
 4.54340    0.00000
 4.54550    0.00000
 4.54750    0.00000
 4.54960    0.00000
 4.55000    0.00000
 4.55170    0.00000
 4.55370    0.00000
 4.55580    0.00000
 4.55790    0.00000
 4.56000    0.00000
 4.56200    0.00000
 4.56410    0.00000
 4.56620    0.00000
 4.56830    0.00000
 4.57000    0.00000
 4.57040    0.00000
 4.57250    0.00000
 4.57400    0.00000
 4.57460    0.00000
 4.57670    0.00000
 4.57880    0.00000
 4.58000    0.00000
 4.58090    0.00000
 4.58300    0.00000
 4.58510    0.00000
 4.58720    0.00000
 4.58930    0.00000
 4.59000    0.00000
 4.59140    0.00000
 4.59350    0.00000
 4.59560    0.00000
 4.59770    0.00000
 4.59980    0.00000
 4.60000    0.00000
 4.60190    0.00000
 4.60410    0.00000
 4.60620    0.00000
 4.60830    0.00000
 4.61000    0.00000
 4.61040    0.00000
 4.61250    0.00000
 4.61470    0.00000
 4.61680    0.00000
 4.61890    0.00000
 4.62000    0.00000
 4.62110    0.00000
 4.62320    0.00000
 4.62400    0.00000
 4.62530    0.00000
 4.62750    0.00000
 4.62960    0.00000
 4.63000    0.00000
 4.63180    0.00000
 4.63390    0.00000
 4.63610    0.00000
 4.63820    0.00000
 4.64000    0.00000
 4.64040    0.00000
 4.64250    0.00000
 4.64470    0.00000
 4.64680    0.00000
 4.64900    0.00000
 4.65000    0.00000
 4.65120    0.00000
 4.65330    0.00000
 4.65550    0.00000
 4.65770    0.00000
 4.65980    0.00000
 4.66000    0.00000
 4.66200    0.00000
 4.66420    0.00000
 4.66640    0.00000
 4.66850    0.00000
 4.67000    0.00000
 4.67070    0.00000
 4.67290    0.00000
 4.67510    0.00000
 4.67600    0.00000
 4.67730    0.00000
 4.67950    0.00000
 4.68000    0.00000
 4.68160    0.00000
 4.68380    0.00000
 4.68600    0.00000
 4.68820    0.00000
 4.69000    0.00000
 4.69040    0.00000
 4.69260    0.00000
 4.69480    0.00000
 4.69700    0.00000
 4.69920    0.00000
 4.70000    0.00000
 4.70150    0.00000
 4.70370    0.00000
 4.70590    0.00000
 4.70810    0.00000
 4.71000    0.00000
 4.71030    0.00000
 4.71250    0.00000
 4.71480    0.00000
 4.71700    0.00000
 4.71920    0.00000
 4.72000    0.00000
 4.72140    0.00000
 4.72370    0.00000
 4.72590    0.00000
 4.72800    0.00000
 4.72810    0.00000
 4.73000    0.00000
 4.73040    0.00000
 4.73260    0.00000
 4.73480    0.00000
 4.73710    0.00000
 4.73930    0.00000
 4.74000    0.00000
 4.74160    0.00000
 4.74380    0.00000
 4.74610    0.00000
 4.74830    0.00000
 4.75000    0.00000
 4.75060    0.00000
 4.75290    0.00000
 4.75510    0.00000
 4.75740    0.00000
 4.75960    0.00000
 4.76000    0.00000
 4.76190    0.00000
 4.76420    0.00000
 4.76640    0.00000
 4.76870    0.00000
 4.77000    0.00000
 4.77100    0.00000
 4.77330    0.00000
 4.77550    0.00000
 4.77780    0.00000
 4.78000    0.00000
 4.78010    0.00000
 4.78240    0.00000
 4.78470    0.00000
 4.78700    0.00000
 4.78930    0.00000
 4.79000    0.00000
 4.79160    0.00000
 4.79390    0.00000
 4.79620    0.00000
 4.79850    0.00000
 4.80000    0.00000
 4.80080    0.00000
 4.80310    0.00000
 4.80540    0.00000
 4.80770    0.00000
 4.81000    0.00000
 4.81230    0.00000
 4.81460    0.00000
 4.81700    0.00000
 4.81930    0.00000
 4.82000    0.00000
 4.82160    0.00000
 4.82390    0.00000
 4.82630    0.00000
 4.82860    0.00000
 4.83000    0.00000
 4.83090    0.00000
 4.83300    0.00000
 4.83330    0.00000
 4.83560    0.00000
 4.83790    0.00000
 4.84000    0.00000
 4.84030    0.00000
 4.84260    0.00000
 4.84500    0.00000
 4.84730    0.00000
 4.84970    0.00000
 4.85000    0.00000
 4.85200    0.00000
 4.85440    0.00000
 4.85670    0.00000
 4.85910    0.00000
 4.86000    0.00000
 4.86140    0.00000
 4.86380    0.00000
 4.86620    0.00000
 4.86850    0.00000
 4.87000    0.00000
 4.87090    0.00000
 4.87330    0.00000
 4.87570    0.00000
 4.87800    0.00000
 4.88000    0.00000
 4.88040    0.00000
 4.88280    0.00000
 4.88520    0.00000
 4.88700    0.00000
 4.88760    0.00000
 4.89000    0.00000
 4.89240    0.00000
 4.89480    0.00000
 4.89720    0.00000
 4.89960    0.00000
 4.90000    0.00000
 4.90200    0.00000
 4.90440    0.00000
 4.90680    0.00000
 4.90920    0.00000
 4.91000    0.00000
 4.91160    0.00000
 4.91400    0.00000
 4.91640    0.00000
 4.91880    0.00000
 4.92000    0.00000
 4.92130    0.00000
 4.92370    0.00000
 4.92610    0.00000
 4.92850    0.00000
 4.93000    0.00000
 4.93100    0.00000
 4.93340    0.00000
 4.93580    0.00000
 4.93830    0.00000
 4.94000    0.00000
 4.94070    0.00000
 4.94100    0.00000
 4.94320    0.00000
 4.94560    0.00000
 4.94800    0.00000
 4.95000    0.00000
 4.95050    0.00000
 4.95290    0.00000
 4.95540    0.00000
 4.95790    0.00000
 4.96000    0.00000
 4.96030    0.00000
 4.96280    0.00000
 4.96520    0.00000
 4.96770    0.00000
 4.97000    0.00000
 4.97020    0.00000
 4.97270    0.00000
 4.97510    0.00000
 4.97760    0.00000
 4.98000    0.00000
 4.98010    0.00000
 4.98260    0.00000
 4.98500    0.00000
 4.98750    0.00000
 4.99000    0.00000
 4.99250    0.00000
 4.99500    0.00000
 4.99600    0.00000
 4.99750    0.00000
 5.00000    0.00000
 5.00250    0.00000
 5.00500    0.00000
 5.00750    0.00000
 5.01000    0.00000
 5.01250    0.00000
 5.01500    0.00000
 5.01760    0.00000
 5.02000    0.00000
 5.02010    0.00000
 5.02260    0.00000
 5.02510    0.00000
 5.02770    0.00000
 5.03000    0.00000
 5.03020    0.00000
 5.03270    0.00000
 5.03520    0.00000
 5.03780    0.00000
 5.04000    0.00000
 5.04030    0.00000
 5.04290    0.00000
 5.04540    0.00000
 5.04800    0.00000
 5.05000    0.00000
 5.05050    0.00000
 5.05100    0.00000
 5.05310    0.00000
 5.05560    0.00000
 5.05820    0.00000
 5.06000    0.00000
 5.06070    0.00000
 5.06330    0.00000
 5.06590    0.00000
 5.06840    0.00000
 5.07000    0.00000
 5.07100    0.00000
 5.07360    0.00000
 5.07610    0.00000
 5.07870    0.00000
 5.08000    0.00000
 5.08130    0.00000
 5.08390    0.00000
 5.08650    0.00000
 5.08910    0.00000
 5.09000    0.00000
 5.09160    0.00000
 5.09420    0.00000
 5.09680    0.00000
 5.09940    0.00000
 5.10000    0.00000
 5.10200    0.00000
 5.10460    0.00000
 5.10700    0.00000
 5.10730    0.00000
 5.10990    0.00000
 5.11000    0.00000
 5.11250    0.00000
 5.11510    0.00000
 5.11770    0.00000
 5.12000    0.00000
 5.12030    0.00000
 5.12300    0.00000
 5.12560    0.00000
 5.12820    0.00000
 5.13000    0.00000
 5.13080    0.00000
 5.13350    0.00000
 5.13610    0.00000
 5.13870    0.00000
 5.14000    0.00000
 5.14140    0.00000
 5.14400    0.00000
 5.14670    0.00000
 5.14930    0.00000
 5.15000    0.00000
 5.15200    0.00000
 5.15460    0.00000
 5.15730    0.00000
 5.16000    0.00000
 5.16260    0.00000
 5.16400    0.00000
 5.16530    0.00000
 5.16800    0.00000
 5.17000    0.00000
 5.17060    0.00000
 5.17330    0.00000
 5.17600    0.00000
 5.17870    0.00000
 5.18000    0.00000
 5.18130    0.00000
 5.18400    0.00000
 5.18670    0.00000
 5.18940    0.00000
 5.19000    0.00000
 5.19210    0.00000
 5.19480    0.00000
 5.19750    0.00000
 5.20000    0.00000
 5.20020    0.00000
 5.20290    0.00000
 5.20560    0.00000
 5.20830    0.00000
 5.21000    0.00000
 5.21100    0.00000
 5.21380    0.00000
 5.21650    0.00000
 5.21920    0.00000
 5.22000    0.00000
 5.22100    0.00000
 5.22190    0.00000
 5.22470    0.00000
 5.22740    0.00000
 5.23000    0.00000
 5.23010    0.00000
 5.23290    0.00000
 5.23560    0.00000
 5.23830    0.00000
 5.24000    0.00000
 5.24110    0.00000
 5.24380    0.00000
 5.24660    0.00000
 5.24930    0.00000
 5.25000    0.00000
 5.25210    0.00000
 5.25490    0.00000
 5.25760    0.00000
 5.26000    0.00000
 5.26040    0.00000
 5.26320    0.00000
 5.26590    0.00000
 5.26870    0.00000
 5.27000    0.00000
 5.27150    0.00000
 5.27430    0.00000
 5.27700    0.00000
 5.27900    0.00000
 5.27980    0.00000
 5.28000    0.00000
 5.28260    0.00000
 5.28540    0.00000
 5.28820    0.00000
 5.29000    0.00000
 5.29100    0.00000
 5.29380    0.00000
 5.29660    0.00000
 5.29940    0.00000
 5.30000    0.00000
 5.30220    0.00000
 5.30500    0.00000
 5.30790    0.00000
 5.31000    0.00000
 5.31070    0.00000
 5.31350    0.00000
 5.31630    0.00000
 5.31910    0.00000
 5.32000    0.00000
 5.32200    0.00000
 5.32480    0.00000
 5.32770    0.00000
 5.33000    0.00000
 5.33050    0.00000
 5.33330    0.00000
 5.33620    0.00000
 5.33700    0.00000
 5.33900    0.00000
 5.34000    0.00000
 5.34190    0.00000
 5.34470    0.00000
 5.34760    0.00000
 5.35000    0.00000
 5.35050    0.00000
 5.35330    0.00000
 5.35620    0.00000
 5.35910    0.00000
 5.36000    0.00000
 5.36190    0.00000
 5.36480    0.00000
 5.36770    0.00000
 5.37000    0.00000
 5.37060    0.00000
 5.37350    0.00000
 5.37630    0.00000
 5.37920    0.00000
 5.38000    0.00000
 5.38210    0.00000
 5.38500    0.00000
 5.38790    0.00000
 5.39000    0.00000
 5.39080    0.00000
 5.39370    0.00000
 5.39670    0.00000
 5.39700    0.00000
 5.39960    0.00000
 5.40000    0.00000
 5.40250    0.00000
 5.40540    0.00000
 5.40830    0.00000
 5.41000    0.00000
 5.41130    0.00000
 5.41420    0.00000
 5.41710    0.00000
 5.42000    0.00000
 5.42010    0.00000
 5.42300    0.00000
 5.42590    0.00000
 5.42890    0.00000
 5.43000    0.00000
 5.43180    0.00000
 5.43480    0.00000
 5.43770    0.00000
 5.44000    0.00000
 5.44070    0.00000
 5.44370    0.00000
 5.44660    0.00000
 5.44960    0.00000
 5.45000    0.00000
 5.45260    0.00000
 5.45550    0.00000
 5.45600    0.00000
 5.45850    0.00000
 5.46000    0.00000
 5.46150    0.00000
 5.46450    0.00000
 5.46750    0.00000
 5.47000    0.00000
 5.47050    0.00000
 5.47350    0.00000
 5.47650    0.00000
 5.47950    0.00000
 5.48000    0.00000
 5.48250    0.00000
 5.48550    0.00000
 5.48850    0.00000
 5.49000    0.00000
 5.49150    0.00000
 5.49450    0.00000
 5.49750    0.00000
 5.50000    0.00000
 5.50060    0.00000
 5.50360    0.00000
 5.50660    0.00000
 5.50960    0.00000
 5.51000    0.00000
 5.51270    0.00000
 5.51570    0.00000
 5.51700    0.00000
 5.51880    0.00000
 5.52000    0.00000
 5.52180    0.00000
 5.52490    0.00000
 5.52790    0.00000
 5.53000    0.00000
 5.53100    0.00000
 5.53400    0.00000
 5.53710    0.00000
 5.54000    0.00000
 5.54020    0.00000
 5.54320    0.00000
 5.54630    0.00000
 5.54940    0.00000
 5.55000    0.00000
 5.55250    0.00000
 5.55560    0.00000
 5.55860    0.00000
 5.56000    0.00000
 5.56170    0.00000
 5.56480    0.00000
 5.56790    0.00000
 5.57000    0.00000
 5.57100    0.00000
 5.57410    0.00000
 5.57720    0.00000
 5.57800    0.00000
 5.58000    0.00000
 5.58040    0.00000
 5.58350    0.00000
 5.58660    0.00000
 5.58970    0.00000
 5.59000    0.00000
 5.59280    0.00000
 5.59600    0.00000
 5.59910    0.00000
 5.60000    0.00000
 5.60220    0.00000
 5.60540    0.00000
 5.60850    0.00000
 5.61000    0.00000
 5.61170    0.00000
 5.61480    0.00000
 5.61800    0.00000
 5.62000    0.00000
 5.62110    0.00000
 5.62430    0.00000
 5.62750    0.00000
 5.63000    0.00000
 5.63060    0.00000
 5.63380    0.00000
 5.63700    0.00000
 5.64000    0.00000
 5.64020    0.00000
 5.64330    0.00000
 5.64650    0.00000
 5.64970    0.00000
 5.65000    0.00000
 5.65290    0.00000
 5.65610    0.00000
 5.65930    0.00000
 5.66000    0.00000
 5.66250    0.00000
 5.66570    0.00000
 5.66890    0.00000
 5.67000    0.00000
 5.67210    0.00000
 5.67540    0.00000
 5.67860    0.00000
 5.68000    0.00000
 5.68180    0.00000
 5.68500    0.00000
 5.68830    0.00000
 5.69000    0.00000
 5.69150    0.00000
 5.69480    0.00000
 5.69800    0.00000
 5.70000    0.00000
 5.70130    0.00000
 5.70300    0.00000
 5.70450    0.00000
 5.70780    0.00000
 5.71000    0.00000
 5.71100    0.00000
 5.71430    0.00000
 5.71760    0.00000
 5.72000    0.00000
 5.72080    0.00000
 5.72410    0.00000
 5.72740    0.00000
 5.73000    0.00000
 5.73070    0.00000
 5.73390    0.00000
 5.73720    0.00000
 5.74000    0.00000
 5.74050    0.00000
 5.74380    0.00000
 5.74710    0.00000
 5.75000    0.00000
 5.75040    0.00000
 5.75370    0.00000
 5.75710    0.00000
 5.76000    0.00000
 5.76040    0.00000
 5.76370    0.00000
 5.76600    0.00000
 5.76700    0.00000
 5.77000    0.00000
 5.77030    0.00000
 5.77370    0.00000
 5.77700    0.00000
 5.78000    0.00000
 5.78030    0.00000
 5.78370    0.00000
 5.78700    0.00000
 5.79000    0.00000
 5.79040    0.00000
 5.79370    0.00000
 5.79710    0.00000
 5.80000    0.00000
 5.80050    0.00000
 5.80380    0.00000
 5.80720    0.00000
 5.81000    0.00000
 5.81060    0.00000
 5.81400    0.00000
 5.81730    0.00000
 5.82000    0.00000
 5.82070    0.00000
 5.82410    0.00000
 5.82750    0.00000
 5.83000    0.00000
 5.83090    0.00000
 5.83430    0.00000
 5.83770    0.00000
 5.84000    0.00000
 5.84110    0.00000
 5.84450    0.00000
 5.84800    0.00000
 5.85000    0.00000
 5.85140    0.00000
 5.85480    0.00000
 5.85820    0.00000
 5.86000    0.00000
 5.86170    0.00000
 5.86510    0.00000
 5.86850    0.00000
 5.87000    0.00000
 5.87200    0.00000
 5.87540    0.00000
 5.87890    0.00000
 5.88000    0.00000
 5.88240    0.00000
 5.88580    0.00000
 5.88930    0.00000
 5.89000    0.00000
 5.89280    0.00000
 5.89400    0.00000
 5.89620    0.00000
 5.89970    0.00000
 5.90000    0.00000
 5.90320    0.00000
 5.90670    0.00000
 5.91000    0.00000
 5.91020    0.00000
 5.91370    0.00000
 5.91720    0.00000
 5.92000    0.00000
 5.92070    0.00000
 5.92420    0.00000
 5.92770    0.00000
 5.93000    0.00000
 5.93120    0.00000
 5.93470    0.00000
 5.93820    0.00000
 5.94000    0.00000
 5.94180    0.00000
 5.94530    0.00000
 5.94880    0.00000
 5.95000    0.00000
 5.95240    0.00000
 5.95590    0.00000
 5.95950    0.00000
 5.96000    0.00000
 5.96300    0.00000
 5.96660    0.00000
 5.97000    0.00000
 5.97010    0.00000
 5.97370    0.00000
 5.97730    0.00000
 5.98000    0.00000
 5.98090    0.00000
 5.98440    0.00000
 5.98800    0.00000
 5.99000    0.00000
 5.99160    0.00000
 5.99520    0.00000
 5.99880    0.00000
 6.00000    0.00000
 6.00240    0.00000
 6.00600    0.00000
 6.00960    0.00000
 6.01000    0.00000
 6.01320    0.00000
 6.01680    0.00000
 6.02000    0.00000
 6.02050    0.00000
 6.02410    0.00000
 6.02600    0.00000
 6.02770    0.00000
 6.03000    0.00000
 6.03140    0.00000
 6.03500    0.00000
 6.03860    0.00000
 6.04000    0.00000
 6.04230    0.00000
 6.04590    0.00000
 6.04960    0.00000
 6.05000    0.00000
 6.05330    0.00000
 6.05690    0.00000
 6.06000    0.00000
 6.06060    0.00000
 6.06430    0.00000
 6.06800    0.00000
 6.07000    0.00000
 6.07160    0.00000
 6.07530    0.00000
 6.07900    0.00000
 6.08000    0.00000
 6.08270    0.00000
 6.08640    0.00000
 6.09000    0.00000
 6.09010    0.00000
 6.09300    0.00000
 6.09380    0.00000
 6.09760    0.00000
 6.10000    0.00000
 6.10130    0.00000
 6.10500    0.00000
 6.10870    0.00000
 6.11000    0.00000
 6.11250    0.00000
 6.11620    0.00000
 6.12000    0.00000
 6.12370    0.00000
 6.12750    0.00000
 6.13000    0.00000
 6.13120    0.00000
 6.13500    0.00000
 6.13870    0.00000
 6.14000    0.00000
 6.14250    0.00000
 6.14630    0.00000
 6.15000    0.00000
 6.15010    0.00000
 6.15380    0.00000
 6.15760    0.00000
 6.16000    0.00000
 6.16140    0.00000
 6.16520    0.00000
 6.16900    0.00000
 6.17000    0.00000
 6.17280    0.00000
 6.17670    0.00000
 6.18000    0.00000
 6.18050    0.00000
 6.18430    0.00000
 6.18810    0.00000
 6.19000    0.00000
 6.19200    0.00000
 6.19580    0.00000
 6.19960    0.00000
 6.20000    0.00000
 6.20350    0.00000
 6.20730    0.00000
 6.21000    0.00000
 6.21120    0.00000
 6.21500    0.00000
 6.21890    0.00000
 6.22000    0.00000
 6.22280    0.00000
 6.22670    0.00000
 6.22900    0.00000
 6.23000    0.00000
 6.23050    0.00000
 6.23440    0.00000
 6.23830    0.00000
 6.24000    0.00000
 6.24220    0.00000
 6.24610    0.00000
 6.25000    0.00000
 6.25390    0.00000
 6.25780    0.00000
 6.26000    0.00000
 6.26170    0.00000
 6.26570    0.00000
 6.26960    0.00000
 6.27000    0.00000
 6.27350    0.00000
 6.27750    0.00000
 6.28000    0.00000
 6.28140    0.00000
 6.28540    0.00000
 6.28930    0.00000
 6.29000    0.00000
 6.29330    0.00000
 6.29720    0.00000
 6.29800    0.00000
 6.30000    0.00000
 6.30120    0.00000
 6.30520    0.00000
 6.30910    0.00000
 6.31000    0.00000
 6.31310    0.00000
 6.31710    0.00000
 6.32000    0.00000
 6.32110    0.00000
 6.32510    0.00000
 6.32910    0.00000
 6.33000    0.00000
 6.33310    0.00000
 6.33710    0.00000
 6.34000    0.00000
 6.34120    0.00000
 6.34520    0.00000
 6.34920    0.00000
 6.35000    0.00000
 6.35320    0.00000
 6.35730    0.00000
 6.36000    0.00000
 6.36130    0.00000
 6.36540    0.00000
 6.36800    0.00000
 6.36940    0.00000
 6.37000    0.00000
 6.37350    0.00000
 6.37760    0.00000
 6.38000    0.00000
 6.38160    0.00000
 6.38570    0.00000
 6.38980    0.00000
 6.39000    0.00000
 6.39390    0.00000
 6.39800    0.00000
 6.40000    0.00000
 6.40200    0.00000
 6.40610    0.00000
 6.41000    0.00000
 6.41030    0.00000
 6.41440    0.00000
 6.41850    0.00000
 6.42000    0.00000
 6.42260    0.00000
 6.42670    0.00000
 6.43000    0.00000
 6.43090    0.00000
 6.43500    0.00000
 6.43800    0.00000
 6.43920    0.00000
 6.44000    0.00000
 6.44330    0.00000
 6.44750    0.00000
 6.45000    0.00000
 6.45160    0.00000
 6.45580    0.00000
 6.45990    0.00000
 6.46000    0.00000
 6.46410    0.00000
 6.46830    0.00000
 6.47000    0.00000
 6.47250    0.00000
 6.47670    0.00000
 6.48000    0.00000
 6.48090    0.00000
 6.48510    0.00000
 6.48930    0.00000
 6.49000    0.00000
 6.49350    0.00000
 6.49770    0.00000
 6.50000    0.00000
 6.50200    0.00000
 6.50620    0.00000
 6.51000    0.00000
 6.51040    0.00000
 6.51470    0.00000
 6.51890    0.00000
 6.52000    0.00000
 6.52320    0.00000
 6.52740    0.00000
 6.53000    0.00000
 6.53170    0.00000
 6.53590    0.00000
 6.54000    0.00000
 6.54020    0.00000
 6.54450    0.00000
 6.54880    0.00000
 6.55000    0.00000
 6.55310    0.00000
 6.55740    0.00000
 6.56000    0.00000
 6.56170    0.00000
 6.56600    0.00000
 6.57000    0.00000
 6.57030    0.00000
 6.57460    0.00000
 6.57890    0.00000
 6.58000    0.00000
 6.58200    0.00000
 6.58330    0.00000
 6.58760    0.00000
 6.59000    0.00000
 6.59200    0.00000
 6.59630    0.00000
 6.60000    0.00000
 6.60070    0.00000
 6.60500    0.00000
 6.60940    0.00000
 6.61000    0.00000
 6.61380    0.00000
 6.61810    0.00000
 6.62000    0.00000
 6.62250    0.00000
 6.62690    0.00000
 6.63000    0.00000
 6.63130    0.00000
 6.63570    0.00000
 6.64000    0.00000
 6.64010    0.00000
 6.64450    0.00000
 6.64890    0.00000
 6.65000    0.00000
 6.65340    0.00000
 6.65500    0.00000
 6.65780    0.00000
 6.66000    0.00000
 6.66220    0.00000
 6.66670    0.00000
 6.67000    0.00000
 6.67110    0.00000
 6.67560    0.00000
 6.68000    0.00000
 6.68450    0.00000
 6.68900    0.00000
 6.69000    0.00000
 6.69340    0.00000
 6.69790    0.00000
 6.70000    0.00000
 6.70240    0.00000
 6.70690    0.00000
 6.71000    0.00000
 6.71140    0.00000
 6.71590    0.00000
 6.72000    0.00000
 6.72040    0.00000
 6.72490    0.00000
 6.72900    0.00000
 6.72950    0.00000
 6.73000    0.00000
 6.73400    0.00000
 6.73850    0.00000
 6.74000    0.00000
 6.74310    0.00000
 6.74760    0.00000
 6.75000    0.00000
 6.75220    0.00000
 6.75680    0.00000
 6.76000    0.00000
 6.76130    0.00000
 6.76590    0.00000
 6.77000    0.00000
 6.77050    0.00000
 6.77510    0.00000
 6.77970    0.00000
 6.78000    0.00000
 6.78430    0.00000
 6.78890    0.00000
 6.79000    0.00000
 6.79350    0.00000
 6.79810    0.00000
 6.80000    0.00000
 6.80270    0.00000
 6.80300    0.00000
 6.80740    0.00000
 6.81000    0.00000
 6.81200    0.00000
 6.81660    0.00000
 6.82000    0.00000
 6.82130    0.00000
 6.82590    0.00000
 6.83000    0.00000
 6.83060    0.00000
 6.83530    0.00000
 6.83990    0.00000
 6.84000    0.00000
 6.84460    0.00000
 6.84930    0.00000
 6.85000    0.00000
 6.85400    0.00000
 6.85870    0.00000
 6.86000    0.00000
 6.86340    0.00000
 6.86810    0.00000
 6.87000    0.00000
 6.87290    0.00000
 6.87760    0.00000
 6.87900    0.00000
 6.88000    0.00000
 6.88230    0.00000
 6.88710    0.00000
 6.89000    0.00000
 6.89180    0.00000
 6.89660    0.00000
 6.90000    0.00000
 6.90130    0.00000
 6.90610    0.00000
 6.91000    0.00000
 6.91090    0.00000
 6.91560    0.00000
 6.92000    0.00000
 6.92040    0.00000
 6.92520    0.00000
 6.93000    0.00000
 6.93480    0.00000
 6.93960    0.00000
 6.94000    0.00000
 6.94440    0.00000
 6.94930    0.00000
 6.95000    0.00000
 6.95410    0.00000
 6.95500    0.00000
 6.95890    0.00000
 6.96000    0.00000
 6.96380    0.00000
 6.96860    0.00000
 6.97000    0.00000
 6.97350    0.00000
 6.97840    0.00000
 6.98000    0.00000
 6.98320    0.00000
 6.98810    0.00000
 6.99000    0.00000
 6.99300    0.00000
 6.99790    0.00000
 7.00000    0.00000
 7.00280    0.00000
 7.00770    0.00000
 7.01000    0.00000
 7.01260    0.00000
 7.01750    0.00000
 7.02000    0.00000
 7.02250    0.00000
 7.02740    0.00000
 7.03000    0.00000
 7.03200    0.00000
 7.03230    0.00000
 7.03730    0.00000
 7.04000    0.00000
 7.04230    0.00000
 7.04720    0.00000
 7.05000    0.00000
 7.05220    0.00000
 7.05720    0.00000
 7.06000    0.00000
 7.06210    0.00000
 7.06710    0.00000
 7.07000    0.00000
 7.07210    0.00000
 7.07710    0.00000
 7.08000    0.00000
 7.08220    0.00000
 7.08720    0.00000
 7.09000    0.00000
 7.09220    0.00000
 7.09720    0.00000
 7.10000    0.00000
 7.10230    0.00000
 7.10730    0.00000
 7.11000    0.00000
 7.11240    0.00000
 7.11740    0.00000
 7.12000    0.00000
 7.12250    0.00000
 7.12760    0.00000
 7.13000    0.00000
 7.13270    0.00000
 7.13780    0.00000
 7.14000    0.00000
 7.14290    0.00000
 7.14800    0.00000
 7.15000    0.00000
 7.15310    0.00000
 7.15820    0.00000
 7.16000    0.00000
 7.16330    0.00000
 7.16850    0.00000
 7.17000    0.00000
 7.17360    0.00000
 7.17880    0.00000
 7.18000    0.00000
 7.18390    0.00000
 7.18900    0.00000
 7.18910    0.00000
 7.19000    0.00000
 7.19420    0.00000
 7.19940    0.00000
 7.20000    0.00000
 7.20460    0.00000
 7.20980    0.00000
 7.21000    0.00000
 7.21500    0.00000
 7.22000    0.00000
 7.22020    0.00000
 7.22540    0.00000
 7.23000    0.00000
 7.23070    0.00000
 7.23590    0.00000
 7.24000    0.00000
 7.24110    0.00000
 7.24640    0.00000
 7.25000    0.00000
 7.25160    0.00000
 7.25690    0.00000
 7.26000    0.00000
 7.26220    0.00000
 7.26740    0.00000
 7.26900    0.00000
 7.27000    0.00000
 7.27270    0.00000
 7.27800    0.00000
 7.28000    0.00000
 7.28330    0.00000
 7.28860    0.00000
 7.29000    0.00000
 7.29390    0.00000
 7.29930    0.00000
 7.30000    0.00000
 7.30460    0.00000
 7.30990    0.00000
 7.31000    0.00000
 7.31530    0.00000
 7.32000    0.00000
 7.32060    0.00000
 7.32600    0.00000
 7.33000    0.00000
 7.33140    0.00000
 7.33680    0.00000
 7.34000    0.00000
 7.34210    0.00000
 7.34750    0.00000
 7.34900    0.00000
 7.35000    0.00000
 7.35290    0.00000
 7.35840    0.00000
 7.36000    0.00000
 7.36380    0.00000
 7.36920    0.00000
 7.37000    0.00000
 7.37460    0.00000
 7.38000    0.00000
 7.38010    0.00000
 7.38550    0.00000
 7.39000    0.00000
 7.39100    0.00000
 7.39640    0.00000
 7.40000    0.00000
 7.40190    0.00000
 7.40740    0.00000
 7.41000    0.00000
 7.41290    0.00000
 7.41840    0.00000
 7.42000    0.00000
 7.42390    0.00000
 7.42940    0.00000
 7.43000    0.00000
 7.43100    0.00000
 7.43490    0.00000
 7.44000    0.00000
 7.44050    0.00000
 7.44600    0.00000
 7.45000    0.00000
 7.45160    0.00000
 7.45710    0.00000
 7.46000    0.00000
 7.46270    0.00000
 7.46830    0.00000
 7.47000    0.00000
 7.47380    0.00000
 7.47940    0.00000
 7.48000    0.00000
 7.48500    0.00000
 7.49000    0.00000
 7.49060    0.00000
 7.49630    0.00000
 7.50000    0.00000
 7.50190    0.00000
 7.50750    0.00000
 7.51000    0.00000
 7.51300    0.00000
 7.51310    0.00000
 7.51880    0.00000
 7.52000    0.00000
 7.52450    0.00000
 7.53000    0.00000
 7.53010    0.00000
 7.53580    0.00000
 7.54000    0.00000
 7.54150    0.00000
 7.54720    0.00000
 7.55000    0.00000
 7.55290    0.00000
 7.55860    0.00000
 7.56000    0.00000
 7.56430    0.00000
 7.57000    0.00000
 7.57580    0.00000
 7.58000    0.00000
 7.58150    0.00000
 7.58730    0.00000
 7.59000    0.00000
 7.59300    0.00000
 7.59600    0.00000
 7.59880    0.00000
 7.60000    0.00000
 7.60460    0.00000
 7.61000    0.00000
 7.61040    0.00000
 7.61610    0.00000
 7.62000    0.00000
 7.62200    0.00000
 7.62780    0.00000
 7.63000    0.00000
 7.63360    0.00000
 7.63940    0.00000
 7.64000    0.00000
 7.64530    0.00000
 7.65000    0.00000
 7.65110    0.00000
 7.65700    0.00000
 7.66000    0.00000
 7.66280    0.00000
 7.66870    0.00000
 7.67000    0.00000
 7.67460    0.00000
 7.68000    0.00000
 7.68050    0.00000
 7.68100    0.00000
 7.68640    0.00000
 7.69000    0.00000
 7.69230    0.00000
 7.69820    0.00000
 7.70000    0.00000
 7.70420    0.00000
 7.71000    0.00000
 7.71010    0.00000
 7.71600    0.00000
 7.72000    0.00000
 7.72200    0.00000
 7.72800    0.00000
 7.73000    0.00000
 7.73400    0.00000
 7.73990    0.00000
 7.74000    0.00000
 7.74590    0.00000
 7.75000    0.00000
 7.75190    0.00000
 7.75800    0.00000
 7.76000    0.00000
 7.76400    0.00000
 7.76600    0.00000
 7.77000    0.00000
 7.77600    0.00000
 7.78000    0.00000
 7.78210    0.00000
 7.78820    0.00000
 7.79000    0.00000
 7.79420    0.00000
 7.80000    0.00000
 7.80030    0.00000
 7.80640    0.00000
 7.81000    0.00000
 7.81250    0.00000
 7.81860    0.00000
 7.82000    0.00000
 7.82470    0.00000
 7.83000    0.00000
 7.83090    0.00000
 7.83700    0.00000
 7.84000    0.00000
 7.84310    0.00000
 7.84930    0.00000
 7.85000    0.00000
 7.85200    0.00000
 7.85550    0.00000
 7.86000    0.00000
 7.86160    0.00000
 7.86780    0.00000
 7.87000    0.00000
 7.87400    0.00000
 7.88000    0.00000
 7.88020    0.00000
 7.88640    0.00000
 7.89000    0.00000
 7.89270    0.00000
 7.89890    0.00000
 7.90000    0.00000
 7.90510    0.00000
 7.91000    0.00000
 7.91140    0.00000
 7.91770    0.00000
 7.92000    0.00000
 7.92390    0.00000
 7.93000    0.00000
 7.93020    0.00000
 7.93650    0.00000
 7.93900    0.00000
 7.94000    0.00000
 7.94280    0.00000
 7.94910    0.00000
 7.95000    0.00000
 7.95540    0.00000
 7.96000    0.00000
 7.96180    0.00000
 7.96810    0.00000
 7.97000    0.00000
 7.97450    0.00000
 7.98000    0.00000
 7.98080    0.00000
 7.98720    0.00000
 7.99000    0.00000
 7.99360    0.00000
 8.00000    0.00000
 8.00640    0.00000
 8.01000    0.00000
 8.01280    0.00000
 8.01920    0.00000
 8.02000    0.00000
 8.02570    0.00000
 8.02700    0.00000
 8.03000    0.00000
 8.03210    0.00000
 8.03860    0.00000
 8.04000    0.00000
 8.04510    0.00000
 8.05000    0.00000
 8.05150    0.00000
 8.05800    0.00000
 8.06000    0.00000
 8.06450    0.00000
 8.07000    0.00000
 8.07100    0.00000
 8.07750    0.00000
 8.08000    0.00000
 8.08410    0.00000
 8.09000    0.00000
 8.09060    0.00000
 8.09720    0.00000
 8.10000    0.00000
 8.10370    0.00000
 8.11000    0.00000
 8.11030    0.00000
 8.11600    0.00000
 8.11690    0.00000
 8.12000    0.00000
 8.12350    0.00000
 8.13000    0.00000
 8.13010    0.00000
 8.13670    0.00000
 8.14000    0.00000
 8.14330    0.00000
 8.15000    0.00000
 8.15660    0.00000
 8.16000    0.00000
 8.16330    0.00000
 8.16990    0.00000
 8.17000    0.00000
 8.17660    0.00000
 8.18000    0.00000
 8.18330    0.00000
 8.19000    0.00000
 8.19670    0.00000
 8.20000    0.00000
 8.20340    0.00000
 8.20600    0.00000
 8.21000    0.00000
 8.21020    0.00000
 8.21690    0.00000
 8.22000    0.00000
 8.22370    0.00000
 8.23000    0.00000
 8.23050    0.00000
 8.23720    0.00000
 8.24000    0.00000
 8.24400    0.00000
 8.25000    0.00000
 8.25080    0.00000
 8.25760    0.00000
 8.26000    0.00000
 8.26450    0.00000
 8.27000    0.00000
 8.27130    0.00000
 8.27810    0.00000
 8.28000    0.00000
 8.28500    0.00000
 8.29000    0.00000
 8.29190    0.00000
 8.29700    0.00000
 8.29880    0.00000
 8.30000    0.00000
 8.30560    0.00000
 8.31000    0.00000
 8.31260    0.00000
 8.31950    0.00000
 8.32000    0.00000
 8.32640    0.00000
 8.33000    0.00000
 8.33330    0.00000
 8.34000    0.00000
 8.34030    0.00000
 8.34720    0.00000
 8.35000    0.00000
 8.35420    0.00000
 8.36000    0.00000
 8.36120    0.00000
 8.36820    0.00000
 8.37000    0.00000
 8.37520    0.00000
 8.38000    0.00000
 8.38220    0.00000
 8.38900    0.00000
 8.38930    0.00000
 8.39000    0.00000
 8.39630    0.00000
 8.40000    0.00000
 8.40340    0.00000
 8.41000    0.00000
 8.41040    0.00000
 8.41750    0.00000
 8.42000    0.00000
 8.42460    0.00000
 8.43000    0.00000
 8.43170    0.00000
 8.43880    0.00000
 8.44000    0.00000
 8.44590    0.00000
 8.45000    0.00000
 8.45310    0.00000
 8.46000    0.00000
 8.46020    0.00000
 8.46740    0.00000
 8.47000    0.00000
 8.47460    0.00000
 8.48000    0.00000
 8.48180    0.00000
 8.48200    0.00000
 8.48900    0.00000
 8.49000    0.00000
 8.49620    0.00000
 8.50000    0.00000
 8.50340    0.00000
 8.51000    0.00000
 8.51060    0.00000
 8.51790    0.00000
 8.52000    0.00000
 8.52510    0.00000
 8.53000    0.00000
 8.53240    0.00000
 8.53970    0.00000
 8.54000    0.00000
 8.54700    0.00000
 8.55000    0.00000
 8.55430    0.00000
 8.56000    0.00000
 8.56160    0.00000
 8.56900    0.00000
 8.57000    0.00000
 8.57600    0.00000
 8.57630    0.00000
 8.58000    0.00000
 8.58370    0.00000
 8.59000    0.00000
 8.59110    0.00000
 8.59850    0.00000
 8.60000    0.00000
 8.60590    0.00000
 8.61000    0.00000
 8.61330    0.00000
 8.62000    0.00000
 8.62070    0.00000
 8.62810    0.00000
 8.63000    0.00000
 8.63560    0.00000
 8.64000    0.00000
 8.64300    0.00000
 8.65000    0.00000
 8.65050    0.00000
 8.65800    0.00000
 8.66000    0.00000
 8.66550    0.00000
 8.67000    0.00000
 8.67100    0.00000
 8.67300    0.00000
 8.68000    0.00000
 8.68060    0.00000
 8.68810    0.00000
 8.69000    0.00000
 8.69570    0.00000
 8.70000    0.00000
 8.70320    0.00000
 8.71000    0.00000
 8.71080    0.00000
 8.71840    0.00000
 8.72000    0.00000
 8.72600    0.00000
 8.73000    0.00000
 8.73360    0.00000
 8.74000    0.00000
 8.74130    0.00000
 8.74890    0.00000
 8.75000    0.00000
 8.75660    0.00000
 8.76000    0.00000
 8.76420    0.00000
 8.76800    0.00000
 8.77000    0.00000
 8.77190    0.00000
 8.77960    0.00000
 8.78000    0.00000
 8.78730    0.00000
 8.79000    0.00000
 8.79510    0.00000
 8.80000    0.00000
 8.80280    0.00000
 8.81000    0.00000
 8.81060    0.00000
 8.81830    0.00000
 8.82000    0.00000
 8.82610    0.00000
 8.83000    0.00000
 8.83390    0.00000
 8.84000    0.00000
 8.84170    0.00000
 8.84960    0.00000
 8.85000    0.00000
 8.85740    0.00000
 8.86000    0.00000
 8.86500    0.00000
 8.86520    0.00000
 8.87000    0.00000
 8.87310    0.00000
 8.88000    0.00000
 8.88100    0.00000
 8.88890    0.00000
 8.89000    0.00000
 8.89680    0.00000
 8.90000    0.00000
 8.90470    0.00000
 8.91000    0.00000
 8.91270    0.00000
 8.92000    0.00000
 8.92060    0.00000
 8.92860    0.00000
 8.93000    0.00000
 8.93660    0.00000
 8.94000    0.00000
 8.94450    0.00000
 8.95000    0.00000
 8.95260    0.00000
 8.96000    0.00000
 8.96060    0.00000
 8.96300    0.00000
 8.96860    0.00000
 8.97000    0.00000
 8.97670    0.00000
 8.98000    0.00000
 8.98470    0.00000
 8.99000    0.00000
 8.99280    0.00000
 9.00000    0.00000
 9.00090    0.00000
 9.00900    0.00000
 9.01000    0.00000
 9.01710    0.00000
 9.02000    0.00000
 9.02530    0.00000
 9.03000    0.00000
 9.03340    0.00000
 9.04000    0.00000
 9.04160    0.00000
 9.04980    0.00000
 9.05000    0.00000
 9.05800    0.00000
 9.06000    0.00000
 9.06300    0.00000
 9.06620    0.00000
 9.07000    0.00000
 9.07440    0.00000
 9.08000    0.00000
 9.08270    0.00000
 9.09000    0.00000
 9.09090    0.00000
 9.09920    0.00000
 9.10000    0.00000
 9.10750    0.00000
 9.11000    0.00000
 9.11580    0.00000
 9.12000    0.00000
 9.12410    0.00000
 9.13000    0.00000
 9.13240    0.00000
 9.14000    0.00000
 9.14080    0.00000
 9.14910    0.00000
 9.15000    0.00000
 9.15750    0.00000
 9.16000    0.00000
 9.16300    0.00000
 9.16590    0.00000
 9.17000    0.00000
 9.17430    0.00000
 9.18000    0.00000
 9.18270    0.00000
 9.19000    0.00000
 9.19120    0.00000
 9.19960    0.00000
 9.20000    0.00000
 9.20810    0.00000
 9.21000    0.00000
 9.21660    0.00000
 9.22000    0.00000
 9.22510    0.00000
 9.23000    0.00000
 9.23360    0.00000
 9.24000    0.00000
 9.24210    0.00000
 9.25000    0.00000
 9.25070    0.00000
 9.25930    0.00000
 9.26000    0.00000
 9.26500    0.00000
 9.26780    0.00000
 9.27000    0.00000
 9.27640    0.00000
 9.28000    0.00000
 9.28510    0.00000
 9.29000    0.00000
 9.29370    0.00000
 9.30000    0.00000
 9.30230    0.00000
 9.31000    0.00000
 9.31100    0.00000
 9.31970    0.00000
 9.32000    0.00000
 9.32840    0.00000
 9.33000    0.00000
 9.33710    0.00000
 9.34000    0.00000
 9.34580    0.00000
 9.35000    0.00000
 9.35450    0.00000
 9.36000    0.00000
 9.36330    0.00000
 9.36700    0.00000
 9.37000    0.00000
 9.37210    0.00000
 9.38000    0.00000
 9.38090    0.00000
 9.38970    0.00000
 9.39000    0.00000
 9.39850    0.00000
 9.40000    0.00000
 9.40730    0.00000
 9.41000    0.00000
 9.41620    0.00000
 9.42000    0.00000
 9.42510    0.00000
 9.43000    0.00000
 9.43400    0.00000
 9.44000    0.00000
 9.44290    0.00000
 9.45000    0.00000
 9.45180    0.00000
 9.46000    0.00000
 9.46070    0.00000
 9.46970    0.00000
 9.47000    0.00000
 9.47100    0.00000
 9.47870    0.00000
 9.48000    0.00000
 9.48770    0.00000
 9.49000    0.00000
 9.49670    0.00000
 9.50000    0.00000
 9.50570    0.00000
 9.51000    0.00000
 9.51470    0.00000
 9.52000    0.00000
 9.52380    0.00000
 9.53000    0.00000
 9.53290    0.00000
 9.54000    0.00000
 9.54200    0.00000
 9.55000    0.00000
 9.55110    0.00000
 9.56000    0.00000
 9.56020    0.00000
 9.56940    0.00000
 9.57000    0.00000
 9.57600    0.00000
 9.57850    0.00000
 9.58000    0.00000
 9.58770    0.00000
 9.59000    0.00000
 9.59690    0.00000
 9.60000    0.00000
 9.60610    0.00000
 9.61000    0.00000
 9.61540    0.00000
 9.62000    0.00000
 9.62460    0.00000
 9.63000    0.00000
 9.63390    0.00000
 9.64000    0.00000
 9.64320    0.00000
 9.65000    0.00000
 9.65250    0.00000
 9.66000    0.00000
 9.66180    0.00000
 9.67000    0.00000
 9.67120    0.00000
 9.68000    0.00000
 9.68050    0.00000
 9.68300    0.00000
 9.68990    0.00000
 9.69000    0.00000
 9.69930    0.00000
 9.70000    0.00000
 9.70870    0.00000
 9.71000    0.00000
 9.71820    0.00000
 9.72000    0.00000
 9.72760    0.00000
 9.73000    0.00000
 9.73710    0.00000
 9.74000    0.00000
 9.74660    0.00000
 9.75000    0.00000
 9.75610    0.00000
 9.76000    0.00000
 9.76560    0.00000
 9.77000    0.00000
 9.77520    0.00000
 9.78000    0.00000
 9.78470    0.00000
 9.79000    0.00000
 9.79430    0.00000
 9.80000    0.00000
 9.80390    0.00000
 9.81000    0.00000
 9.81350    0.00000
 9.82000    0.00000
 9.82320    0.00000
 9.83000    0.00000
 9.83280    0.00000
 9.84000    0.00000
 9.84250    0.00000
 9.85000    0.00000
 9.85220    0.00000
 9.86000    0.00000
 9.86190    0.00000
 9.87000    0.00000
 9.87170    0.00000
 9.88000    0.00000
 9.88140    0.00000
 9.89000    0.00000
 9.89120    0.00000
 9.89900    0.00000
 9.90000    0.00000
 9.90100    0.00000
 9.91000    0.00000
 9.91080    0.00000
 9.92000    0.00000
 9.92060    0.00000
 9.93000    0.00000
 9.93050    0.00000
 9.94000    0.00000
 9.94040    0.00000
 9.95000    0.00000
 9.95020    0.00000
 9.96000    0.00000
 9.96020    0.00000
 9.97000    0.00000
 9.97010    0.00000
 9.98000    0.00000
 9.99000    0.00000
10.00000    0.00000
10.00800    0.00000
10.01000    0.00000
10.02000    0.00000
10.03000    0.00000
10.04000    0.00000
10.05000    0.00000
10.06000    0.00000
10.07000    0.00000
10.08100    0.00000
10.09100    0.00000
10.10100    0.00000
10.11100    0.00000
10.11900    0.00000
10.12100    0.00000
10.13200    0.00000
10.14200    0.00000
10.15200    0.00000
10.16300    0.00000
10.17300    0.00000
10.18300    0.00000
10.19400    0.00000
10.20400    0.00000
10.21500    0.00000
10.22500    0.00000
10.23200    0.00000
10.23500    0.00000
10.24600    0.00000
10.25600    0.00000
10.26700    0.00000
10.27700    0.00000
10.28800    0.00000
10.29900    0.00000
10.30900    0.00000
10.32000    0.00000
10.33100    0.00000
10.34100    0.00000
10.34500    0.00000
10.35200    0.00000
10.36300    0.00000
10.37300    0.00000
10.38400    0.00000
10.39500    0.00000
10.40600    0.00000
10.41700    0.00000
10.42800    0.00000
10.43800    0.00000
10.44900    0.00000
10.46000    0.00000
10.47100    0.00000
10.48200    0.00000
10.49300    0.00000
10.50400    0.00000
10.51500    0.00000
10.52600    0.00000
10.53700    0.00000
10.54900    0.00000
10.56000    0.00000
10.57100    0.00000
10.57600    0.00000
10.58200    0.00000
10.59300    0.00000
10.60400    0.00000
10.61600    0.00000
10.62700    0.00000
10.63800    0.00000
10.65000    0.00000
10.66100    0.00000
10.67200    0.00000
10.68400    0.00000
10.69300    0.00000
10.69500    0.00000
10.70700    0.00000
10.71800    0.00000
10.73000    0.00000
10.74100    0.00000
10.75300    0.00000
10.76400    0.00000
10.77600    0.00000
10.78700    0.00000
10.79900    0.00000
10.81100    0.00000
10.81200    0.00000
10.82300    0.00000
10.83400    0.00000
10.84600    0.00000
10.85800    0.00000
10.87000    0.00000
10.88100    0.00000
10.89300    0.00000
10.90500    0.00000
10.91700    0.00000
10.92900    0.00000
10.93200    0.00000
10.94100    0.00000
10.95300    0.00000
10.96500    0.00000
10.97700    0.00000
10.98900    0.00000
11.00100    0.00000
11.01300    0.00000
11.02500    0.00000
11.03800    0.00000
11.05000    0.00000
11.05300    0.00000
11.06200    0.00000
11.07400    0.00000
11.08600    0.00000
11.09900    0.00000
11.11100    0.00000
11.12300    0.00000
11.13600    0.00000
11.14800    0.00000
11.16100    0.00000
11.17300    0.00000
11.17500    0.00000
11.18600    0.00000
11.19800    0.00000
11.21100    0.00000
11.22300    0.00000
11.23600    0.00000
11.24900    0.00000
11.26100    0.00000
11.27400    0.00000
11.28700    0.00000
11.29900    0.00000
11.31200    0.00000
11.32500    0.00000
11.33800    0.00000
11.35100    0.00000
11.36400    0.00000
11.37700    0.00000
11.39000    0.00000
11.40300    0.00000
11.41600    0.00000
11.42500    0.00000
11.42900    0.00000
11.44200    0.00000
11.45500    0.00000
11.46800    0.00000
11.48100    0.00000
11.49400    0.00000
11.50700    0.00000
11.52100    0.00000
11.53400    0.00000
11.54700    0.00000
11.55100    0.00000
11.56100    0.00000
11.57400    0.00000
11.58700    0.00000
11.60100    0.00000
11.61400    0.00000
11.62800    0.00000
11.64100    0.00000
11.65500    0.00000
11.66900    0.00000
11.68000    0.00000
11.68200    0.00000
11.69600    0.00000
11.71000    0.00000
11.72300    0.00000
11.73700    0.00000
11.75100    0.00000
11.76500    0.00000
11.77900    0.00000
11.79200    0.00000
11.80600    0.00000
11.80900    0.00000
11.82000    0.00000
11.83400    0.00000
11.84800    0.00000
11.86200    0.00000
11.87600    0.00000
11.89100    0.00000
11.90500    0.00000
11.91900    0.00000
11.93300    0.00000
11.94000    0.00000
11.94700    0.00000
11.96200    0.00000
11.97600    0.00000
11.99000    0.00000
12.00500    0.00000
12.01900    0.00000
12.03400    0.00000
12.04800    0.00000
12.06300    0.00000
12.07200    0.00000
12.07700    0.00000
12.09200    0.00000
12.10700    0.00000
12.12100    0.00000
12.13600    0.00000
12.15100    0.00000
12.16500    0.00000
12.18000    0.00000
12.19500    0.00000
12.20600    0.00000
12.21000    0.00000
12.22500    0.00000
12.24000    0.00000
12.25500    0.00000
12.27000    0.00000
12.28500    0.00000
12.30000    0.00000
12.31500    0.00000
12.33000    0.00000
12.34200    0.00000
12.34600    0.00000
12.36100    0.00000
12.37600    0.00000
12.39200    0.00000
12.40700    0.00000
12.42200    0.00000
12.43800    0.00000
12.45300    0.00000
12.46900    0.00000
12.47900    0.00000
12.48400    0.00000
12.50000    0.00000
12.51600    0.00000
12.53100    0.00000
12.54700    0.00000
12.56300    0.00000
12.57900    0.00000
12.59400    0.00000
12.61000    0.00000
12.61700    0.00000
12.62600    0.00000
12.64200    0.00000
12.65800    0.00000
12.67400    0.00000
12.69000    0.00000
12.70600    0.00000
12.72300    0.00000
12.73900    0.00000
12.75500    0.00000
12.75700    0.00000
12.77100    0.00000
12.78800    0.00000
12.80400    0.00000
12.82100    0.00000
12.83700    0.00000
12.85300    0.00000
12.87000    0.00000
12.88700    0.00000
12.89800    0.00000
12.90300    0.00000
12.92000    0.00000
12.93700    0.00000
12.95300    0.00000
12.97000    0.00000
12.98700    0.00000
13.00400    0.00000
13.02100    0.00000
13.03800    0.00000
13.04100    0.00000
13.05500    0.00000
13.07200    0.00000
13.08900    0.00000
13.10600    0.00000
13.12300    0.00000
13.14100    0.00000
13.15800    0.00000
13.17500    0.00000
13.18600    0.00000
13.19300    0.00000
13.21000    0.00000
13.22800    0.00000
13.24500    0.00000
13.26300    0.00000
13.28000    0.00000
13.29800    0.00000
13.31600    0.00000
13.33200    0.00000
13.33300    0.00000
13.35100    0.00000
13.36900    0.00000
13.38700    0.00000
13.40500    0.00000
13.42300    0.00000
13.44100    0.00000
13.45900    0.00000
13.47700    0.00000
13.48000    0.00000
13.49500    0.00000
13.51400    0.00000
13.53200    0.00000
13.55000    0.00000
13.56900    0.00000
13.58700    0.00000
13.60500    0.00000
13.62400    0.00000
13.63000    0.00000
13.64300    0.00000
13.66100    0.00000
13.68000    0.00000
13.69900    0.00000
13.71700    0.00000
13.73600    0.00000
13.75500    0.00000
13.77400    0.00000
13.78100    0.00000
13.79300    0.00000
13.81200    0.00000
13.83100    0.00000
13.85000    0.00000
13.87000    0.00000
13.88900    0.00000
13.90800    0.00000
13.92800    0.00000
13.93400    0.00000
13.94700    0.00000
13.96600    0.00000
13.98600    0.00000
14.00600    0.00000
14.02500    0.00000
14.04500    0.00000
14.06500    0.00000
14.08500    0.00000
14.08800    0.00000
14.10400    0.00000
14.12400    0.00000
14.14400    0.00000
14.16400    0.00000
14.18400    0.00000
14.20500    0.00000
14.22500    0.00000
14.24400    0.00000
14.24500    0.00000
14.26500    0.00000
14.28600    0.00000
14.30600    0.00000
14.32700    0.00000
14.34700    0.00000
14.36800    0.00000
14.38800    0.00000
14.40200    0.00000
14.40900    0.00000
14.43000    0.00000
14.45100    0.00000
14.47200    0.00000
14.49300    0.00000
14.51400    0.00000
14.53500    0.00000
14.55600    0.00000
14.56200    0.00000
14.57700    0.00000
14.59900    0.00000
14.62000    0.00000
14.64100    0.00000
14.66300    0.00000
14.68400    0.00000
14.70600    0.00000
14.72400    0.00000
14.72800    0.00000
14.74900    0.00000
14.77100    0.00000
14.79300    0.00000
14.81500    0.00000
14.83700    0.00000
14.85900    0.00000
14.88100    0.00000
14.88700    0.00000
14.90300    0.00000
14.92500    0.00000
14.94800    0.00000
14.97000    0.00000
14.99300    0.00000
15.01500    0.00000
15.03800    0.00000
15.05200    0.00000
15.06000    0.00000
15.08300    0.00000
15.10600    0.00000
15.12900    0.00000
15.15200    0.00000
15.17500    0.00000
15.19800    0.00000
15.21900    0.00000
15.22100    0.00000
15.24400    0.00000
15.26700    0.00000
15.29100    0.00000
15.31400    0.00000
15.33700    0.00000
15.36100    0.00000
15.38500    0.00000
15.38800    0.00000
15.40800    0.00000
15.43200    0.00000
15.45600    0.00000
15.48000    0.00000
15.50400    0.00000
15.52800    0.00000
15.55200    0.00000
15.55800    0.00000
15.57600    0.00000
15.60100    0.00000
15.62500    0.00000
15.64900    0.00000
15.67400    0.00000
15.69900    0.00000
15.72300    0.00000
15.73100    0.00000
15.74800    0.00000
15.77300    0.00000
15.79800    0.00000
15.82300    0.00000
15.84800    0.00000
15.87300    0.00000
15.89800    0.00000
15.90500    0.00000
15.92400    0.00000
15.94900    0.00000
15.97400    0.00000
16.00000    0.00000
16.02600    0.00000
16.05100    0.00000
16.07700    0.00000
16.08200    0.00000
16.10300    0.00000
16.12900    0.00000
16.15500    0.00000
16.18100    0.00000
16.20700    0.00000
16.23400    0.00000
16.26000    0.00000
16.28700    0.00000
16.31300    0.00000
16.34000    0.00000
16.36700    0.00000
16.39300    0.00000
16.42000    0.00000
16.44100    0.00000
16.44700    0.00000
16.47400    0.00000
16.50200    0.00000
16.52900    0.00000
16.55600    0.00000
16.58400    0.00000
16.61100    0.00000
16.62300    0.00000
16.63900    0.00000
16.66700    0.00000
16.69400    0.00000
16.72200    0.00000
16.75000    0.00000
16.77900    0.00000
16.80700    0.00000
16.83500    0.00000
16.86300    0.00000
16.89200    0.00000
16.92000    0.00000
16.94900    0.00000
16.97800    0.00000
16.99400    0.00000
17.00700    0.00000
17.03600    0.00000
17.06500    0.00000
17.09400    0.00000
17.12300    0.00000
17.15300    0.00000
17.18200    0.00000
17.21200    0.00000
17.24100    0.00000
17.27100    0.00000
17.30100    0.00000
17.33100    0.00000
17.36100    0.00000
17.37300    0.00000
17.39100    0.00000
17.42200    0.00000
17.45200    0.00000
17.48300    0.00000
17.51300    0.00000
17.54400    0.00000
17.56500    0.00000
17.57500    0.00000
17.60600    0.00000
17.63700    0.00000
17.66800    0.00000
17.69900    0.00000
17.73000    0.00000
17.76000    0.00000
17.76200    0.00000
17.79400    0.00000
17.82500    0.00000
17.85700    0.00000
17.88900    0.00000
17.92100    0.00000
17.95300    0.00000
17.95700    0.00000
17.98600    0.00000
18.01800    0.00000
18.05100    0.00000
18.08300    0.00000
18.11600    0.00000
18.14900    0.00000
18.15600    0.00000
18.18200    0.00000
18.21500    0.00000
18.24800    0.00000
18.28200    0.00000
18.31500    0.00000
18.34900    0.00000
18.35800    0.00000
18.38200    0.00000
18.41600    0.00000
18.45000    0.00000
18.48400    0.00000
18.51900    0.00000
18.55300    0.00000
18.56100    0.00000
18.58700    0.00000
18.62200    0.00000
18.65700    0.00000
18.69200    0.00000
18.72700    0.00000
18.76200    0.00000
18.76700    0.00000
18.79700    0.00000
18.83200    0.00000
18.86800    0.00000
18.90400    0.00000
18.93900    0.00000
18.97500    0.00000
19.01100    0.00000
19.04800    0.00000
19.08400    0.00000
19.12000    0.00000
19.15700    0.00000
19.18600    0.00000
19.19400    0.00000
19.23100    0.00000
19.26800    0.00000
19.30500    0.00000
19.34200    0.00000
19.38000    0.00000
19.39900    0.00000
19.41700    0.00000
19.45500    0.00000
19.49300    0.00000
19.53100    0.00000
19.56900    0.00000
19.60800    0.00000
19.61400    0.00000
19.64600    0.00000
19.68500    0.00000
19.72400    0.00000
19.76300    0.00000
19.80200    0.00000
19.83100    0.00000
19.84100    0.00000
19.88100    0.00000
19.92000    0.00000
19.96000    0.00000
20.00000    0.00000
20.04000    0.00000
20.05100    0.00000
20.08000    0.00000
20.12100    0.00000
20.16100    0.00000
20.20200    0.00000
20.24300    0.00000
20.27300    0.00000
20.28400    0.00000
20.32500    0.00000
20.36700    0.00000
20.40800    0.00000
20.45000    0.00000
20.49200    0.00000
20.49800    0.00000
20.53400    0.00000
20.57600    0.00000
20.61900    0.00000
20.66100    0.00000
20.70400    0.00000
20.72600    0.00000
20.74700    0.00000
20.79000    0.00000
20.83300    0.00000
20.87700    0.00000
20.92100    0.00000
20.95600    0.00000
20.96400    0.00000
21.00800    0.00000
21.05300    0.00000
21.09700    0.00000
21.14200    0.00000
21.18600    0.00000
21.18800    0.00000
21.23100    0.00000
21.27700    0.00000
21.32200    0.00000
21.36800    0.00000
21.41300    0.00000
21.42300    0.00000
21.45900    0.00000
21.50500    0.00000
21.55200    0.00000
21.59800    0.00000
21.64500    0.00000
21.66100    0.00000
21.69200    0.00000
21.73900    0.00000
21.78600    0.00000
21.83400    0.00000
21.88200    0.00000
21.90100    0.00000
21.93000    0.00000
21.97800    0.00000
22.02600    0.00000
22.07500    0.00000
22.12400    0.00000
22.14400    0.00000
22.17300    0.00000
22.22200    0.00000
22.27200    0.00000
22.32100    0.00000
22.37100    0.00000
22.38900    0.00000
22.42200    0.00000
22.47200    0.00000
22.52300    0.00000
22.57300    0.00000
22.62400    0.00000
22.63800    0.00000
22.67600    0.00000
22.72700    0.00000
22.77900    0.00000
22.83100    0.00000
22.88300    0.00000
22.88900    0.00000
22.93600    0.00000
22.98900    0.00000
23.04100    0.00000
23.09500    0.00000
23.14200    0.00000
23.14800    0.00000
23.20200    0.00000
23.25600    0.00000
23.31000    0.00000
23.36400    0.00000
23.39900    0.00000
23.41900    0.00000
23.47400    0.00000
23.52900    0.00000
23.58500    0.00000
23.64100    0.00000
23.65900    0.00000
23.69700    0.00000
23.75300    0.00000
23.81000    0.00000
23.86600    0.00000
23.92100    0.00000
23.92300    0.00000
23.98100    0.00000
24.03800    0.00000
24.09600    0.00000
24.15500    0.00000
24.18600    0.00000
24.21300    0.00000
24.27200    0.00000
24.33100    0.00000
24.39000    0.00000
24.45000    0.00000
24.45500    0.00000
24.51000    0.00000
24.57000    0.00000
24.63100    0.00000
24.69100    0.00000
24.72600    0.00000
24.75200    0.00000
24.81400    0.00000
24.87600    0.00000
24.93800    0.00000
25.00000    0.00000
